"","intro_resp.keys","intro_resp.rt","participant","date","expName","psychopyVersion","OS","frameRate","inst_one_resp.keys","inst_one_resp.rt","mouse.x","mouse.y","mouse.leftButton","mouse.midButton","mouse.rightButton","mouse.time","mouse.clicked_name","practice_face.thisRepN","practice_face.thisTrialN","practice_face.thisN","practice_face.thisIndex","practice_face.ran","face_file","corr_resp_face","body_file","corr_resp_body","begin_resp.keys","begin_resp.rt","trial_one_loop.thisRepN","trial_one_loop.thisTrialN","trial_one_loop.thisN","trial_one_loop.thisIndex","trial_one_loop.ran","insr_two_resp.keys","insr_two_resp.rt","practice_loop_body.thisRepN","practice_loop_body.thisTrialN","practice_loop_body.thisN","practice_loop_body.thisIndex","practice_loop_body.ran","trial_two_loop.thisRepN","trial_two_loop.thisTrialN","trial_two_loop.thisN","trial_two_loop.thisIndex","trial_two_loop.ran"
"1","space",8.558,71095,"2022-11-19_11h52.19.347","KW_BodyFaceExp","2022.2.0","Win32",60.0240096,"",NA,NA,NA,NA,NA,NA,NA,"",NA,NA,NA,NA,NA,"","","","","",NA,NA,NA,NA,NA,NA,"",NA,NA,NA,NA,NA,NA,NA,NA,NA,NA,NA
"2","",NA,71095,"2022-11-19_11h52.19.347","KW_BodyFaceExp","2022.2.0","Win32",60.0240096,"right",12.918,NA,NA,NA,NA,NA,NA,"",NA,NA,NA,NA,NA,"","","","","",NA,NA,NA,NA,NA,NA,"",NA,NA,NA,NA,NA,NA,NA,NA,NA,NA,NA
"3","",NA,71095,"2022-11-19_11h52.19.347","KW_BodyFaceExp","2022.2.0","Win32",60.0240096,"",NA,0.027777778,-0.022222222,1,0,0,9.863,"resp_neutral",0,0,0,1,1,"F02.mp4","NEUTRAL","B02.mp4","ANGRY","",NA,NA,NA,NA,NA,NA,"",NA,NA,NA,NA,NA,NA,NA,NA,NA,NA,NA
"4","",NA,71095,"2022-11-19_11h52.19.347","KW_BodyFaceExp","2022.2.0","Win32",60.0240096,"",NA,0.027777778,-0.022222222,1,0,0,0.483,"resp_neutral",0,1,1,3,1,"F04.mp4","NEUTRAL","B04.mp4","ANGRY","",NA,NA,NA,NA,NA,NA,"",NA,NA,NA,NA,NA,NA,NA,NA,NA,NA,NA
"5","",NA,71095,"2022-11-19_11h52.19.347","KW_BodyFaceExp","2022.2.0","Win32",60.0240096,"",NA,0.027777778,-0.022222222,1,0,0,0.387,"resp_neutral",0,2,2,5,1,"F06.mp4","HAPPY","B06.mp4","ANGRY","",NA,NA,NA,NA,NA,NA,"",NA,NA,NA,NA,NA,NA,NA,NA,NA,NA,NA
"6","",NA,71095,"2022-11-19_11h52.19.347","KW_BodyFaceExp","2022.2.0","Win32",60.0240096,"",NA,0.352777778,0.0625,1,0,0,0.733,"resp_happy",0,3,3,2,1,"F03.mp4","HAPPY","B03.mp4","NEUTRAL","",NA,NA,NA,NA,NA,NA,"",NA,NA,NA,NA,NA,NA,NA,NA,NA,NA,NA
"7","",NA,71095,"2022-11-19_11h52.19.347","KW_BodyFaceExp","2022.2.0","Win32",60.0240096,"",NA,0.030555556,-0.0125,1,0,0,0.38,"resp_neutral",0,4,4,7,1,"F08.mp4","ANGRY","B08.mp4","NEUTRAL","",NA,NA,NA,NA,NA,NA,"",NA,NA,NA,NA,NA,NA,NA,NA,NA,NA,NA
"8","",NA,71095,"2022-11-19_11h52.19.347","KW_BodyFaceExp","2022.2.0","Win32",60.0240096,"",NA,-0.359722222,-0.054166667,1,0,0,0.792,"resp_angry",0,5,5,9,1,"F10.mp4","ANGRY","B10.mp4","NEUTRAL","",NA,NA,NA,NA,NA,NA,"",NA,NA,NA,NA,NA,NA,NA,NA,NA,NA,NA
"9","",NA,71095,"2022-11-19_11h52.19.347","KW_BodyFaceExp","2022.2.0","Win32",60.0240096,"",NA,-0.343055556,-0.018055556,1,0,0,0.361,"resp_angry",0,6,6,6,1,"F07.mp4","ANGRY","B07.mp4","HAPPY","",NA,NA,NA,NA,NA,NA,"",NA,NA,NA,NA,NA,NA,NA,NA,NA,NA,NA
"10","",NA,71095,"2022-11-19_11h52.19.347","KW_BodyFaceExp","2022.2.0","Win32",60.0240096,"",NA,-0.026388889,0.0375,1,0,0,0.353,"resp_neutral",0,7,7,0,1,"F01.mp4","ANGRY","B01.mp4","HAPPY","",NA,NA,NA,NA,NA,NA,"",NA,NA,NA,NA,NA,NA,NA,NA,NA,NA,NA
"11","",NA,71095,"2022-11-19_11h52.19.347","KW_BodyFaceExp","2022.2.0","Win32",60.0240096,"",NA,-0.020833333,0.011111111,1,0,0,0.489,"resp_neutral",0,8,8,8,1,"F09.mp4","NEUTRAL","B09.mp4","HAPPY","",NA,NA,NA,NA,NA,NA,"",NA,NA,NA,NA,NA,NA,NA,NA,NA,NA,NA
"12","",NA,71095,"2022-11-19_11h52.19.347","KW_BodyFaceExp","2022.2.0","Win32",60.0240096,"",NA,-0.020833333,0.011111111,1,0,0,0.409,"resp_neutral",0,9,9,4,1,"F05.mp4","ANGRY","B05.mp4","NEUTRAL","",NA,NA,NA,NA,NA,NA,"",NA,NA,NA,NA,NA,NA,NA,NA,NA,NA,NA
"13","",NA,71095,"2022-11-19_11h52.19.347","KW_BodyFaceExp","2022.2.0","Win32",60.0240096,"",NA,NA,NA,NA,NA,NA,NA,"",NA,NA,NA,NA,NA,"","","","","space",2.069,NA,NA,NA,NA,NA,"",NA,NA,NA,NA,NA,NA,NA,NA,NA,NA,NA
"14","",NA,71095,"2022-11-19_11h52.19.347","KW_BodyFaceExp","2022.2.0","Win32",60.0240096,"",NA,-0.020833333,0.011111111,1,0,0,0.724,"resp_neutral",NA,NA,NA,NA,NA,"F02.mp4","NEUTRAL","","","",NA,0,0,0,1,1,"",NA,NA,NA,NA,NA,NA,NA,NA,NA,NA,NA
"15","",NA,71095,"2022-11-19_11h52.19.347","KW_BodyFaceExp","2022.2.0","Win32",60.0240096,"",NA,-0.020833333,0.011111111,1,0,0,0.499,"resp_neutral",NA,NA,NA,NA,NA,"F36.mp4","ANGRY","","","",NA,0,1,1,35,1,"",NA,NA,NA,NA,NA,NA,NA,NA,NA,NA,NA
"16","",NA,71095,"2022-11-19_11h52.19.347","KW_BodyFaceExp","2022.2.0","Win32",60.0240096,"",NA,-0.020833333,0.011111111,1,0,0,0.384,"resp_neutral",NA,NA,NA,NA,NA,"F20.mp4","NEUTRAL","","","",NA,0,2,2,19,1,"",NA,NA,NA,NA,NA,NA,NA,NA,NA,NA,NA
"17","",NA,71095,"2022-11-19_11h52.19.347","KW_BodyFaceExp","2022.2.0","Win32",60.0240096,"",NA,0.318055556,0.015277778,1,0,0,0.612,"resp_happy",NA,NA,NA,NA,NA,"F12.mp4","HAPPY","","","",NA,0,3,3,11,1,"",NA,NA,NA,NA,NA,NA,NA,NA,NA,NA,NA
"18","",NA,71095,"2022-11-19_11h52.19.347","KW_BodyFaceExp","2022.2.0","Win32",60.0240096,"",NA,0.0125,-0.001388889,1,0,0,0.345,"resp_neutral",NA,NA,NA,NA,NA,"F07.mp4","ANGRY","","","",NA,0,4,4,6,1,"",NA,NA,NA,NA,NA,NA,NA,NA,NA,NA,NA
"19","",NA,71095,"2022-11-19_11h52.19.347","KW_BodyFaceExp","2022.2.0","Win32",60.0240096,"",NA,-0.3125,-0.015277778,1,0,0,0.557,"resp_angry",NA,NA,NA,NA,NA,"F10.mp4","ANGRY","","","",NA,0,5,5,9,1,"",NA,NA,NA,NA,NA,NA,NA,NA,NA,NA,NA
"20","",NA,71095,"2022-11-19_11h52.19.347","KW_BodyFaceExp","2022.2.0","Win32",60.0240096,"",NA,-0.3125,-0.015277778,1,0,0,0.475,"resp_angry",NA,NA,NA,NA,NA,"F05.mp4","ANGRY","","","",NA,0,6,6,4,1,"",NA,NA,NA,NA,NA,NA,NA,NA,NA,NA,NA
"21","",NA,71095,"2022-11-19_11h52.19.347","KW_BodyFaceExp","2022.2.0","Win32",60.0240096,"",NA,0.026388889,0.023611111,1,0,0,0.738,"resp_neutral",NA,NA,NA,NA,NA,"F25.mp4","NEUTRAL","","","",NA,0,7,7,24,1,"",NA,NA,NA,NA,NA,NA,NA,NA,NA,NA,NA
"22","",NA,71095,"2022-11-19_11h52.19.347","KW_BodyFaceExp","2022.2.0","Win32",60.0240096,"",NA,-0.004166667,0.031944444,1,0,0,0.483,"resp_neutral",NA,NA,NA,NA,NA,"F34.mp4","HAPPY","","","",NA,0,8,8,33,1,"",NA,NA,NA,NA,NA,NA,NA,NA,NA,NA,NA
"23","",NA,71095,"2022-11-19_11h52.19.347","KW_BodyFaceExp","2022.2.0","Win32",60.0240096,"",NA,0.004166667,-0.001388889,1,0,0,0.5,"resp_neutral",NA,NA,NA,NA,NA,"F32.mp4","ANGRY","","","",NA,0,9,9,31,1,"",NA,NA,NA,NA,NA,NA,NA,NA,NA,NA,NA
"24","",NA,71095,"2022-11-19_11h52.19.347","KW_BodyFaceExp","2022.2.0","Win32",60.0240096,"",NA,0.004166667,-0.001388889,1,0,0,0.333,"resp_neutral",NA,NA,NA,NA,NA,"F08.mp4","ANGRY","","","",NA,0,10,10,7,1,"",NA,NA,NA,NA,NA,NA,NA,NA,NA,NA,NA
"25","",NA,71095,"2022-11-19_11h52.19.347","KW_BodyFaceExp","2022.2.0","Win32",60.0240096,"",NA,0.004166667,-0.001388889,1,0,0,0.562,"resp_neutral",NA,NA,NA,NA,NA,"F26.mp4","NEUTRAL","","","",NA,0,11,11,25,1,"",NA,NA,NA,NA,NA,NA,NA,NA,NA,NA,NA
"26","",NA,71095,"2022-11-19_11h52.19.347","KW_BodyFaceExp","2022.2.0","Win32",60.0240096,"",NA,-0.266666667,-0.015277778,1,0,0,0.626,"resp_angry",NA,NA,NA,NA,NA,"F01.mp4","ANGRY","","","",NA,0,12,12,0,1,"",NA,NA,NA,NA,NA,NA,NA,NA,NA,NA,NA
"27","",NA,71095,"2022-11-19_11h52.19.347","KW_BodyFaceExp","2022.2.0","Win32",60.0240096,"",NA,0.35,-0.009722222,1,0,0,0.311,"resp_happy",NA,NA,NA,NA,NA,"F35.mp4","NEUTRAL","","","",NA,0,13,13,34,1,"",NA,NA,NA,NA,NA,NA,NA,NA,NA,NA,NA
"28","",NA,71095,"2022-11-19_11h52.19.347","KW_BodyFaceExp","2022.2.0","Win32",60.0240096,"",NA,-0.076388889,-0.051388889,1,0,0,0.373,"resp_neutral",NA,NA,NA,NA,NA,"F28.mp4","NEUTRAL","","","",NA,0,14,14,27,1,"",NA,NA,NA,NA,NA,NA,NA,NA,NA,NA,NA
"29","",NA,71095,"2022-11-19_11h52.19.347","KW_BodyFaceExp","2022.2.0","Win32",60.0240096,"",NA,0.284722222,0.015277778,1,0,0,0.739,"resp_happy",NA,NA,NA,NA,NA,"F42.mp4","NEUTRAL","","","",NA,0,15,15,41,1,"",NA,NA,NA,NA,NA,NA,NA,NA,NA,NA,NA
"30","",NA,71095,"2022-11-19_11h52.19.347","KW_BodyFaceExp","2022.2.0","Win32",60.0240096,"",NA,0.329166667,0.004166667,1,0,0,0.699,"resp_happy",NA,NA,NA,NA,NA,"F03.mp4","HAPPY","","","",NA,0,16,16,2,1,"",NA,NA,NA,NA,NA,NA,NA,NA,NA,NA,NA
"31","",NA,71095,"2022-11-19_11h52.19.347","KW_BodyFaceExp","2022.2.0","Win32",60.0240096,"",NA,0.329166667,0.004166667,1,0,0,0.534,"resp_happy",NA,NA,NA,NA,NA,"F23.mp4","HAPPY","","","",NA,0,17,17,22,1,"",NA,NA,NA,NA,NA,NA,NA,NA,NA,NA,NA
"32","",NA,71095,"2022-11-19_11h52.19.347","KW_BodyFaceExp","2022.2.0","Win32",60.0240096,"",NA,0.223611111,0.004166667,1,0,0,0.361,"resp_neutral",NA,NA,NA,NA,NA,"F33.mp4","NEUTRAL","","","",NA,0,18,18,32,1,"",NA,NA,NA,NA,NA,NA,NA,NA,NA,NA,NA
"33","",NA,71095,"2022-11-19_11h52.19.347","KW_BodyFaceExp","2022.2.0","Win32",60.0240096,"",NA,0.011111111,0.011111111,1,0,0,0.3,"resp_neutral",NA,NA,NA,NA,NA,"F19.mp4","ANGRY","","","",NA,0,19,19,18,1,"",NA,NA,NA,NA,NA,NA,NA,NA,NA,NA,NA
"34","",NA,71095,"2022-11-19_11h52.19.347","KW_BodyFaceExp","2022.2.0","Win32",60.0240096,"",NA,-0.072222222,0.008333333,1,0,0,0.903,"resp_neutral",NA,NA,NA,NA,NA,"F13.mp4","NEUTRAL","","","",NA,0,20,20,12,1,"",NA,NA,NA,NA,NA,NA,NA,NA,NA,NA,NA
"35","",NA,71095,"2022-11-19_11h52.19.347","KW_BodyFaceExp","2022.2.0","Win32",60.0240096,"",NA,-0.384722222,-0.015277778,1,0,0,0.84,"resp_angry",NA,NA,NA,NA,NA,"F29.mp4","ANGRY","","","",NA,0,21,21,28,1,"",NA,NA,NA,NA,NA,NA,NA,NA,NA,NA,NA
"36","",NA,71095,"2022-11-19_11h52.19.347","KW_BodyFaceExp","2022.2.0","Win32",60.0240096,"",NA,-0.045833333,0.018055556,1,0,0,0.832,"resp_neutral",NA,NA,NA,NA,NA,"F31.mp4","HAPPY","","","",NA,0,22,22,30,1,"",NA,NA,NA,NA,NA,NA,NA,NA,NA,NA,NA
"37","",NA,71095,"2022-11-19_11h52.19.347","KW_BodyFaceExp","2022.2.0","Win32",60.0240096,"",NA,-0.1375,0.015277778,1,0,0,0.291,"resp_neutral",NA,NA,NA,NA,NA,"F04.mp4","NEUTRAL","","","",NA,0,23,23,3,1,"",NA,NA,NA,NA,NA,NA,NA,NA,NA,NA,NA
"38","",NA,71095,"2022-11-19_11h52.19.347","KW_BodyFaceExp","2022.2.0","Win32",60.0240096,"",NA,0.0125,0.011111111,1,0,0,1.205,"resp_neutral",NA,NA,NA,NA,NA,"F21.mp4","NEUTRAL","","","",NA,0,24,24,20,1,"",NA,NA,NA,NA,NA,NA,NA,NA,NA,NA,NA
"39","",NA,71095,"2022-11-19_11h52.19.347","KW_BodyFaceExp","2022.2.0","Win32",60.0240096,"",NA,-0.320833333,0,1,0,0,0.177,"resp_angry",NA,NA,NA,NA,NA,"F15.mp4","NEUTRAL","","","",NA,0,25,25,14,1,"",NA,NA,NA,NA,NA,NA,NA,NA,NA,NA,NA
"40","",NA,71095,"2022-11-19_11h52.19.347","KW_BodyFaceExp","2022.2.0","Win32",60.0240096,"",NA,-0.320833333,0,1,0,0,0.382,"resp_angry",NA,NA,NA,NA,NA,"F11.mp4","HAPPY","","","",NA,0,26,26,10,1,"",NA,NA,NA,NA,NA,NA,NA,NA,NA,NA,NA
"41","",NA,71095,"2022-11-19_11h52.19.347","KW_BodyFaceExp","2022.2.0","Win32",60.0240096,"",NA,-0.320833333,0,1,0,0,0.137,"resp_angry",NA,NA,NA,NA,NA,"F17.mp4","ANGRY","","","",NA,0,27,27,16,1,"",NA,NA,NA,NA,NA,NA,NA,NA,NA,NA,NA
"42","",NA,71095,"2022-11-19_11h52.19.347","KW_BodyFaceExp","2022.2.0","Win32",60.0240096,"",NA,-0.048611111,0.015277778,1,0,0,0.722,"resp_neutral",NA,NA,NA,NA,NA,"F37.mp4","HAPPY","","","",NA,0,28,28,36,1,"",NA,NA,NA,NA,NA,NA,NA,NA,NA,NA,NA
"43","",NA,71095,"2022-11-19_11h52.19.347","KW_BodyFaceExp","2022.2.0","Win32",60.0240096,"",NA,-0.304166667,0.011111111,1,0,0,0.353,"resp_angry",NA,NA,NA,NA,NA,"F40.mp4","ANGRY","","","",NA,0,29,29,39,1,"",NA,NA,NA,NA,NA,NA,NA,NA,NA,NA,NA
"44","",NA,71095,"2022-11-19_11h52.19.347","KW_BodyFaceExp","2022.2.0","Win32",60.0240096,"",NA,-0.306944444,0.0125,1,0,0,0.324,"resp_angry",NA,NA,NA,NA,NA,"F22.mp4","ANGRY","","","",NA,0,30,30,21,1,"",NA,NA,NA,NA,NA,NA,NA,NA,NA,NA,NA
"45","",NA,71095,"2022-11-19_11h52.19.347","KW_BodyFaceExp","2022.2.0","Win32",60.0240096,"",NA,-0.048611111,0.0125,1,0,0,0.457,"resp_neutral",NA,NA,NA,NA,NA,"F09.mp4","NEUTRAL","","","",NA,0,31,31,8,1,"",NA,NA,NA,NA,NA,NA,NA,NA,NA,NA,NA
"46","",NA,71095,"2022-11-19_11h52.19.347","KW_BodyFaceExp","2022.2.0","Win32",60.0240096,"",NA,-0.047222222,0.0125,1,0,0,0.418,"resp_neutral",NA,NA,NA,NA,NA,"F24.mp4","ANGRY","","","",NA,0,32,32,23,1,"",NA,NA,NA,NA,NA,NA,NA,NA,NA,NA,NA
"47","",NA,71095,"2022-11-19_11h52.19.347","KW_BodyFaceExp","2022.2.0","Win32",60.0240096,"",NA,-0.079166667,-0.025,1,0,0,0.46,"resp_neutral",NA,NA,NA,NA,NA,"F30.mp4","HAPPY","","","",NA,0,33,33,29,1,"",NA,NA,NA,NA,NA,NA,NA,NA,NA,NA,NA
"48","",NA,71095,"2022-11-19_11h52.19.347","KW_BodyFaceExp","2022.2.0","Win32",60.0240096,"",NA,-0.333333333,0.0125,1,0,0,0.289,"resp_angry",NA,NA,NA,NA,NA,"F06.mp4","HAPPY","","","",NA,0,34,34,5,1,"",NA,NA,NA,NA,NA,NA,NA,NA,NA,NA,NA
"49","",NA,71095,"2022-11-19_11h52.19.347","KW_BodyFaceExp","2022.2.0","Win32",60.0240096,"",NA,-0.106944444,0.029166667,1,0,0,1.508,"resp_neutral",NA,NA,NA,NA,NA,"F39.mp4","NEUTRAL","","","",NA,0,35,35,38,1,"",NA,NA,NA,NA,NA,NA,NA,NA,NA,NA,NA
"50","",NA,71095,"2022-11-19_11h52.19.347","KW_BodyFaceExp","2022.2.0","Win32",60.0240096,"",NA,-0.233333333,0,1,0,0,0.554,"resp_angry",NA,NA,NA,NA,NA,"F18.mp4","HAPPY","","","",NA,0,36,36,17,1,"",NA,NA,NA,NA,NA,NA,NA,NA,NA,NA,NA
"51","",NA,71095,"2022-11-19_11h52.19.347","KW_BodyFaceExp","2022.2.0","Win32",60.0240096,"",NA,-0.295833333,0.011111111,1,0,0,0.66,"resp_angry",NA,NA,NA,NA,NA,"F38.mp4","HAPPY","","","",NA,0,37,37,37,1,"",NA,NA,NA,NA,NA,NA,NA,NA,NA,NA,NA
"52","",NA,71095,"2022-11-19_11h52.19.347","KW_BodyFaceExp","2022.2.0","Win32",60.0240096,"",NA,-0.381944444,-0.002777778,1,0,0,0.916,"resp_angry",NA,NA,NA,NA,NA,"F41.mp4","ANGRY","","","",NA,0,38,38,40,1,"",NA,NA,NA,NA,NA,NA,NA,NA,NA,NA,NA
"53","",NA,71095,"2022-11-19_11h52.19.347","KW_BodyFaceExp","2022.2.0","Win32",60.0240096,"",NA,-0.055555556,-0.008333333,1,0,0,0.317,"resp_neutral",NA,NA,NA,NA,NA,"F14.mp4","HAPPY","","","",NA,0,39,39,13,1,"",NA,NA,NA,NA,NA,NA,NA,NA,NA,NA,NA
"54","",NA,71095,"2022-11-19_11h52.19.347","KW_BodyFaceExp","2022.2.0","Win32",60.0240096,"",NA,-0.055555556,-0.008333333,1,0,0,0.324,"resp_neutral",NA,NA,NA,NA,NA,"F27.mp4","HAPPY","","","",NA,0,40,40,26,1,"",NA,NA,NA,NA,NA,NA,NA,NA,NA,NA,NA
"55","",NA,71095,"2022-11-19_11h52.19.347","KW_BodyFaceExp","2022.2.0","Win32",60.0240096,"",NA,0.306944444,-0.023611111,1,0,0,0.338,"resp_happy",NA,NA,NA,NA,NA,"F16.mp4","HAPPY","","","",NA,0,41,41,15,1,"",NA,NA,NA,NA,NA,NA,NA,NA,NA,NA,NA
"56","",NA,71095,"2022-11-19_11h52.19.347","KW_BodyFaceExp","2022.2.0","Win32",60.0240096,"",NA,-0.068055556,-0.001388889,1,0,0,0.671,"resp_neutral",NA,NA,NA,NA,NA,"F22.mp4","ANGRY","","","",NA,1,0,42,21,1,"",NA,NA,NA,NA,NA,NA,NA,NA,NA,NA,NA
"57","",NA,71095,"2022-11-19_11h52.19.347","KW_BodyFaceExp","2022.2.0","Win32",60.0240096,"",NA,-0.3875,0.034722222,1,0,0,0.109,"resp_angry",NA,NA,NA,NA,NA,"F06.mp4","HAPPY","","","",NA,1,1,43,5,1,"",NA,NA,NA,NA,NA,NA,NA,NA,NA,NA,NA
"58","",NA,71095,"2022-11-19_11h52.19.347","KW_BodyFaceExp","2022.2.0","Win32",60.0240096,"",NA,-0.368055556,0.008333333,1,0,0,0.149,"resp_angry",NA,NA,NA,NA,NA,"F28.mp4","NEUTRAL","","","",NA,1,2,44,27,1,"",NA,NA,NA,NA,NA,NA,NA,NA,NA,NA,NA
"59","",NA,71095,"2022-11-19_11h52.19.347","KW_BodyFaceExp","2022.2.0","Win32",60.0240096,"",NA,-0.098611111,-0.009722222,1,0,0,0.742,"resp_neutral",NA,NA,NA,NA,NA,"F32.mp4","ANGRY","","","",NA,1,3,45,31,1,"",NA,NA,NA,NA,NA,NA,NA,NA,NA,NA,NA
"60","",NA,71095,"2022-11-19_11h52.19.347","KW_BodyFaceExp","2022.2.0","Win32",60.0240096,"",NA,-0.098611111,-0.009722222,1,0,0,0.453,"resp_neutral",NA,NA,NA,NA,NA,"F21.mp4","NEUTRAL","","","",NA,1,4,46,20,1,"",NA,NA,NA,NA,NA,NA,NA,NA,NA,NA,NA
"61","",NA,71095,"2022-11-19_11h52.19.347","KW_BodyFaceExp","2022.2.0","Win32",60.0240096,"",NA,-0.098611111,-0.009722222,1,0,0,0.318,"resp_neutral",NA,NA,NA,NA,NA,"F39.mp4","NEUTRAL","","","",NA,1,5,47,38,1,"",NA,NA,NA,NA,NA,NA,NA,NA,NA,NA,NA
"62","",NA,71095,"2022-11-19_11h52.19.347","KW_BodyFaceExp","2022.2.0","Win32",60.0240096,"",NA,-0.098611111,-0.009722222,1,0,0,0.402,"resp_neutral",NA,NA,NA,NA,NA,"F10.mp4","ANGRY","","","",NA,1,6,48,9,1,"",NA,NA,NA,NA,NA,NA,NA,NA,NA,NA,NA
"63","",NA,71095,"2022-11-19_11h52.19.347","KW_BodyFaceExp","2022.2.0","Win32",60.0240096,"",NA,-0.098611111,-0.009722222,1,0,0,0.613,"resp_neutral",NA,NA,NA,NA,NA,"F26.mp4","NEUTRAL","","","",NA,1,7,49,25,1,"",NA,NA,NA,NA,NA,NA,NA,NA,NA,NA,NA
"64","",NA,71095,"2022-11-19_11h52.19.347","KW_BodyFaceExp","2022.2.0","Win32",60.0240096,"",NA,-0.272222222,0.025,1,0,0,0.292,"resp_angry",NA,NA,NA,NA,NA,"F25.mp4","NEUTRAL","","","",NA,1,8,50,24,1,"",NA,NA,NA,NA,NA,NA,NA,NA,NA,NA,NA
"65","",NA,71095,"2022-11-19_11h52.19.347","KW_BodyFaceExp","2022.2.0","Win32",60.0240096,"",NA,-0.272222222,0.026388889,1,0,0,0.355,"resp_angry",NA,NA,NA,NA,NA,"F04.mp4","NEUTRAL","","","",NA,1,9,51,3,1,"",NA,NA,NA,NA,NA,NA,NA,NA,NA,NA,NA
"66","",NA,71095,"2022-11-19_11h52.19.347","KW_BodyFaceExp","2022.2.0","Win32",60.0240096,"",NA,-0.111111111,-0.011111111,1,0,0,0.369,"resp_neutral",NA,NA,NA,NA,NA,"F14.mp4","HAPPY","","","",NA,1,10,52,13,1,"",NA,NA,NA,NA,NA,NA,NA,NA,NA,NA,NA
"67","",NA,71095,"2022-11-19_11h52.19.347","KW_BodyFaceExp","2022.2.0","Win32",60.0240096,"",NA,-0.086111111,-0.022222222,1,0,0,0.302,"resp_neutral",NA,NA,NA,NA,NA,"F31.mp4","HAPPY","","","",NA,1,11,53,30,1,"",NA,NA,NA,NA,NA,NA,NA,NA,NA,NA,NA
"68","",NA,71095,"2022-11-19_11h52.19.347","KW_BodyFaceExp","2022.2.0","Win32",60.0240096,"",NA,-0.422222222,0.006944444,1,0,0,0.323,"resp_angry",NA,NA,NA,NA,NA,"F34.mp4","HAPPY","","","",NA,1,12,54,33,1,"",NA,NA,NA,NA,NA,NA,NA,NA,NA,NA,NA
"69","",NA,71095,"2022-11-19_11h52.19.347","KW_BodyFaceExp","2022.2.0","Win32",60.0240096,"",NA,-0.036111111,-0.005555556,1,0,0,1.618,"resp_neutral",NA,NA,NA,NA,NA,"F24.mp4","ANGRY","","","",NA,1,13,55,23,1,"",NA,NA,NA,NA,NA,NA,NA,NA,NA,NA,NA
"70","",NA,71095,"2022-11-19_11h52.19.347","KW_BodyFaceExp","2022.2.0","Win32",60.0240096,"",NA,-0.333333333,0.001388889,1,0,0,0.741,"resp_angry",NA,NA,NA,NA,NA,"F38.mp4","HAPPY","","","",NA,1,14,56,37,1,"",NA,NA,NA,NA,NA,NA,NA,NA,NA,NA,NA
"71","",NA,71095,"2022-11-19_11h52.19.347","KW_BodyFaceExp","2022.2.0","Win32",60.0240096,"",NA,-0.881944444,-0.120833333,1,0,0,3.08,"resp_neutral",NA,NA,NA,NA,NA,"F07.mp4","ANGRY","","","",NA,1,15,57,6,1,"",NA,NA,NA,NA,NA,NA,NA,NA,NA,NA,NA
"72","",NA,71095,"2022-11-19_11h52.19.347","KW_BodyFaceExp","2022.2.0","Win32",60.0240096,"",NA,0.290277778,0.023611111,1,0,0,0.685,"resp_happy",NA,NA,NA,NA,NA,"F19.mp4","ANGRY","","","",NA,1,16,58,18,1,"",NA,NA,NA,NA,NA,NA,NA,NA,NA,NA,NA
"73","",NA,71095,"2022-11-19_11h52.19.347","KW_BodyFaceExp","2022.2.0","Win32",60.0240096,"",NA,-0.320833333,-0.013888889,1,0,0,1.183,"resp_angry",NA,NA,NA,NA,NA,"F17.mp4","ANGRY","","","",NA,1,17,59,16,1,"",NA,NA,NA,NA,NA,NA,NA,NA,NA,NA,NA
"74","",NA,71095,"2022-11-19_11h52.19.347","KW_BodyFaceExp","2022.2.0","Win32",60.0240096,"",NA,0.448611111,-0.0375,1,0,0,0.295,"resp_happy",NA,NA,NA,NA,NA,"F16.mp4","HAPPY","","","",NA,1,18,60,15,1,"",NA,NA,NA,NA,NA,NA,NA,NA,NA,NA,NA
"75","",NA,71095,"2022-11-19_11h52.19.347","KW_BodyFaceExp","2022.2.0","Win32",60.0240096,"",NA,0.023611111,-0.008333333,1,0,0,0.364,"resp_neutral",NA,NA,NA,NA,NA,"F08.mp4","ANGRY","","","",NA,1,19,61,7,1,"",NA,NA,NA,NA,NA,NA,NA,NA,NA,NA,NA
"76","",NA,71095,"2022-11-19_11h52.19.347","KW_BodyFaceExp","2022.2.0","Win32",60.0240096,"",NA,-0.315277778,-0.009722222,1,0,0,0.383,"resp_angry",NA,NA,NA,NA,NA,"F41.mp4","ANGRY","","","",NA,1,20,62,40,1,"",NA,NA,NA,NA,NA,NA,NA,NA,NA,NA,NA
"77","",NA,71095,"2022-11-19_11h52.19.347","KW_BodyFaceExp","2022.2.0","Win32",60.0240096,"",NA,0.3625,0.015277778,1,0,0,0.32,"resp_happy",NA,NA,NA,NA,NA,"F13.mp4","NEUTRAL","","","",NA,1,21,63,12,1,"",NA,NA,NA,NA,NA,NA,NA,NA,NA,NA,NA
"78","",NA,71095,"2022-11-19_11h52.19.347","KW_BodyFaceExp","2022.2.0","Win32",60.0240096,"",NA,0.3625,0.015277778,1,0,0,0.306,"resp_happy",NA,NA,NA,NA,NA,"F09.mp4","NEUTRAL","","","",NA,1,22,64,8,1,"",NA,NA,NA,NA,NA,NA,NA,NA,NA,NA,NA
"79","",NA,71095,"2022-11-19_11h52.19.347","KW_BodyFaceExp","2022.2.0","Win32",60.0240096,"",NA,0.3625,0.015277778,1,0,0,0.482,"resp_happy",NA,NA,NA,NA,NA,"F27.mp4","HAPPY","","","",NA,1,23,65,26,1,"",NA,NA,NA,NA,NA,NA,NA,NA,NA,NA,NA
"80","",NA,71095,"2022-11-19_11h52.19.347","KW_BodyFaceExp","2022.2.0","Win32",60.0240096,"",NA,0.3625,0.015277778,1,0,0,0.182,"resp_happy",NA,NA,NA,NA,NA,"F11.mp4","HAPPY","","","",NA,1,24,66,10,1,"",NA,NA,NA,NA,NA,NA,NA,NA,NA,NA,NA
"81","",NA,71095,"2022-11-19_11h52.19.347","KW_BodyFaceExp","2022.2.0","Win32",60.0240096,"",NA,0.3625,0.015277778,1,0,0,0.444,"resp_happy",NA,NA,NA,NA,NA,"F23.mp4","HAPPY","","","",NA,1,25,67,22,1,"",NA,NA,NA,NA,NA,NA,NA,NA,NA,NA,NA
"82","",NA,71095,"2022-11-19_11h52.19.347","KW_BodyFaceExp","2022.2.0","Win32",60.0240096,"",NA,0.020833333,-0.019444444,1,0,0,0.48,"resp_neutral",NA,NA,NA,NA,NA,"F12.mp4","HAPPY","","","",NA,1,26,68,11,1,"",NA,NA,NA,NA,NA,NA,NA,NA,NA,NA,NA
"83","",NA,71095,"2022-11-19_11h52.19.347","KW_BodyFaceExp","2022.2.0","Win32",60.0240096,"",NA,0.020833333,-0.019444444,1,0,0,0.362,"resp_neutral",NA,NA,NA,NA,NA,"F01.mp4","ANGRY","","","",NA,1,27,69,0,1,"",NA,NA,NA,NA,NA,NA,NA,NA,NA,NA,NA
"84","",NA,71095,"2022-11-19_11h52.19.347","KW_BodyFaceExp","2022.2.0","Win32",60.0240096,"",NA,0.318055556,-0.034722222,1,0,0,0.679,"resp_happy",NA,NA,NA,NA,NA,"F03.mp4","HAPPY","","","",NA,1,28,70,2,1,"",NA,NA,NA,NA,NA,NA,NA,NA,NA,NA,NA
"85","",NA,71095,"2022-11-19_11h52.19.347","KW_BodyFaceExp","2022.2.0","Win32",60.0240096,"",NA,0.331944444,-0.011111111,1,0,0,0.565,"resp_happy",NA,NA,NA,NA,NA,"F30.mp4","HAPPY","","","",NA,1,29,71,29,1,"",NA,NA,NA,NA,NA,NA,NA,NA,NA,NA,NA
"86","",NA,71095,"2022-11-19_11h52.19.347","KW_BodyFaceExp","2022.2.0","Win32",60.0240096,"",NA,0.351388889,0.008333333,1,0,0,1.253,"resp_happy",NA,NA,NA,NA,NA,"F42.mp4","NEUTRAL","","","",NA,1,30,72,41,1,"",NA,NA,NA,NA,NA,NA,NA,NA,NA,NA,NA
"87","",NA,71095,"2022-11-19_11h52.19.347","KW_BodyFaceExp","2022.2.0","Win32",60.0240096,"",NA,-0.040277778,0.005555556,1,0,0,0.375,"resp_neutral",NA,NA,NA,NA,NA,"F36.mp4","ANGRY","","","",NA,1,31,73,35,1,"",NA,NA,NA,NA,NA,NA,NA,NA,NA,NA,NA
"88","",NA,71095,"2022-11-19_11h52.19.347","KW_BodyFaceExp","2022.2.0","Win32",60.0240096,"",NA,0.302777778,-0.001388889,1,0,0,0.585,"resp_happy",NA,NA,NA,NA,NA,"F18.mp4","HAPPY","","","",NA,1,32,74,17,1,"",NA,NA,NA,NA,NA,NA,NA,NA,NA,NA,NA
"89","",NA,71095,"2022-11-19_11h52.19.347","KW_BodyFaceExp","2022.2.0","Win32",60.0240096,"",NA,-0.126388889,-0.029166667,1,0,0,0.796,"resp_neutral",NA,NA,NA,NA,NA,"F15.mp4","NEUTRAL","","","",NA,1,33,75,14,1,"",NA,NA,NA,NA,NA,NA,NA,NA,NA,NA,NA
"90","",NA,71095,"2022-11-19_11h52.19.347","KW_BodyFaceExp","2022.2.0","Win32",60.0240096,"",NA,0.3625,-0.001388889,1,0,0,0.87,"resp_happy",NA,NA,NA,NA,NA,"F20.mp4","NEUTRAL","","","",NA,1,34,76,19,1,"",NA,NA,NA,NA,NA,NA,NA,NA,NA,NA,NA
"91","",NA,71095,"2022-11-19_11h52.19.347","KW_BodyFaceExp","2022.2.0","Win32",60.0240096,"",NA,0.005555556,0.031944444,1,0,0,0.656,"resp_neutral",NA,NA,NA,NA,NA,"F40.mp4","ANGRY","","","",NA,1,35,77,39,1,"",NA,NA,NA,NA,NA,NA,NA,NA,NA,NA,NA
"92","",NA,71095,"2022-11-19_11h52.19.347","KW_BodyFaceExp","2022.2.0","Win32",60.0240096,"",NA,0.005555556,0.031944444,1,0,0,0.385,"resp_neutral",NA,NA,NA,NA,NA,"F29.mp4","ANGRY","","","",NA,1,36,78,28,1,"",NA,NA,NA,NA,NA,NA,NA,NA,NA,NA,NA
"93","",NA,71095,"2022-11-19_11h52.19.347","KW_BodyFaceExp","2022.2.0","Win32",60.0240096,"",NA,-0.298611111,-0.002777778,1,0,0,1.099,"resp_angry",NA,NA,NA,NA,NA,"F37.mp4","HAPPY","","","",NA,1,37,79,36,1,"",NA,NA,NA,NA,NA,NA,NA,NA,NA,NA,NA
"94","",NA,71095,"2022-11-19_11h52.19.347","KW_BodyFaceExp","2022.2.0","Win32",60.0240096,"",NA,-0.298611111,-0.002777778,1,0,0,0.316,"resp_angry",NA,NA,NA,NA,NA,"F05.mp4","ANGRY","","","",NA,1,38,80,4,1,"",NA,NA,NA,NA,NA,NA,NA,NA,NA,NA,NA
"95","",NA,71095,"2022-11-19_11h52.19.347","KW_BodyFaceExp","2022.2.0","Win32",60.0240096,"",NA,-0.298611111,-0.002777778,1,0,0,0.477,"resp_angry",NA,NA,NA,NA,NA,"F02.mp4","NEUTRAL","","","",NA,1,39,81,1,1,"",NA,NA,NA,NA,NA,NA,NA,NA,NA,NA,NA
"96","",NA,71095,"2022-11-19_11h52.19.347","KW_BodyFaceExp","2022.2.0","Win32",60.0240096,"",NA,0.0125,0.023611111,1,0,0,0.339,"resp_neutral",NA,NA,NA,NA,NA,"F33.mp4","NEUTRAL","","","",NA,1,40,82,32,1,"",NA,NA,NA,NA,NA,NA,NA,NA,NA,NA,NA
"97","",NA,71095,"2022-11-19_11h52.19.347","KW_BodyFaceExp","2022.2.0","Win32",60.0240096,"",NA,0.394444444,-0.009722222,1,0,0,1.056,"resp_happy",NA,NA,NA,NA,NA,"F35.mp4","NEUTRAL","","","",NA,1,41,83,34,1,"",NA,NA,NA,NA,NA,NA,NA,NA,NA,NA,NA
"98","",NA,71095,"2022-11-19_11h52.19.347","KW_BodyFaceExp","2022.2.0","Win32",60.0240096,"",NA,NA,NA,NA,NA,NA,NA,"",NA,NA,NA,NA,NA,"","","","","",NA,NA,NA,NA,NA,NA,"right",183.738,NA,NA,NA,NA,NA,NA,NA,NA,NA,NA
"99","",NA,71095,"2022-11-19_11h52.19.347","KW_BodyFaceExp","2022.2.0","Win32",60.0240096,"",NA,0.331944444,0.002777778,1,0,0,2.427,"resp_happy",NA,NA,NA,NA,NA,"F07.mp4","ANGRY","B07.mp4","HAPPY","",NA,NA,NA,NA,NA,NA,"",NA,0,0,0,6,1,NA,NA,NA,NA,NA
"100","",NA,71095,"2022-11-19_11h52.19.347","KW_BodyFaceExp","2022.2.0","Win32",60.0240096,"",NA,-0.029166667,0.011111111,1,0,0,3.282,"resp_neutral",NA,NA,NA,NA,NA,"F03.mp4","HAPPY","B03.mp4","NEUTRAL","",NA,NA,NA,NA,NA,NA,"",NA,0,1,1,2,1,NA,NA,NA,NA,NA
"101","",NA,71095,"2022-11-19_11h52.19.347","KW_BodyFaceExp","2022.2.0","Win32",60.0240096,"",NA,-0.029166667,0.011111111,1,0,0,0.436,"resp_neutral",NA,NA,NA,NA,NA,"F05.mp4","ANGRY","B05.mp4","NEUTRAL","",NA,NA,NA,NA,NA,NA,"",NA,0,2,2,4,1,NA,NA,NA,NA,NA
"102","",NA,71095,"2022-11-19_11h52.19.347","KW_BodyFaceExp","2022.2.0","Win32",60.0240096,"",NA,-0.029166667,0.011111111,1,0,0,0.618,"resp_neutral",NA,NA,NA,NA,NA,"F10.mp4","ANGRY","B10.mp4","NEUTRAL","",NA,NA,NA,NA,NA,NA,"",NA,0,3,3,9,1,NA,NA,NA,NA,NA
"103","",NA,71095,"2022-11-19_11h52.19.347","KW_BodyFaceExp","2022.2.0","Win32",60.0240096,"",NA,-0.331944444,0.008333333,1,0,0,0.962,"resp_angry",NA,NA,NA,NA,NA,"F08.mp4","ANGRY","B08.mp4","NEUTRAL","",NA,NA,NA,NA,NA,NA,"",NA,0,4,4,7,1,NA,NA,NA,NA,NA
"104","",NA,71095,"2022-11-19_11h52.19.347","KW_BodyFaceExp","2022.2.0","Win32",60.0240096,"",NA,-0.331944444,0.008333333,1,0,0,0.457,"resp_angry",NA,NA,NA,NA,NA,"F04.mp4","NEUTRAL","B04.mp4","ANGRY","",NA,NA,NA,NA,NA,NA,"",NA,0,5,5,3,1,NA,NA,NA,NA,NA
"105","",NA,71095,"2022-11-19_11h52.19.347","KW_BodyFaceExp","2022.2.0","Win32",60.0240096,"",NA,-0.301388889,0.008333333,1,0,0,2.349,"resp_angry",NA,NA,NA,NA,NA,"F02.mp4","NEUTRAL","B02.mp4","ANGRY","",NA,NA,NA,NA,NA,NA,"",NA,0,6,6,1,1,NA,NA,NA,NA,NA
"106","",NA,71095,"2022-11-19_11h52.19.347","KW_BodyFaceExp","2022.2.0","Win32",60.0240096,"",NA,0.355555556,0.0125,1,0,0,1.43,"resp_happy",NA,NA,NA,NA,NA,"F01.mp4","ANGRY","B01.mp4","HAPPY","",NA,NA,NA,NA,NA,NA,"",NA,0,7,7,0,1,NA,NA,NA,NA,NA
"107","",NA,71095,"2022-11-19_11h52.19.347","KW_BodyFaceExp","2022.2.0","Win32",60.0240096,"",NA,0.355555556,0.0125,1,0,0,1.484,"resp_happy",NA,NA,NA,NA,NA,"F06.mp4","HAPPY","B06.mp4","ANGRY","",NA,NA,NA,NA,NA,NA,"",NA,0,8,8,5,1,NA,NA,NA,NA,NA
"108","",NA,71095,"2022-11-19_11h52.19.347","KW_BodyFaceExp","2022.2.0","Win32",60.0240096,"",NA,0.355555556,0.0125,1,0,0,1.429,"resp_happy",NA,NA,NA,NA,NA,"F09.mp4","NEUTRAL","B09.mp4","HAPPY","",NA,NA,NA,NA,NA,NA,"",NA,0,9,9,8,1,NA,NA,NA,NA,NA
"109","",NA,71095,"2022-11-19_11h52.19.347","KW_BodyFaceExp","2022.2.0","Win32",60.0240096,"",NA,NA,NA,NA,NA,NA,NA,"",NA,NA,NA,NA,NA,"","","","","space",17.581,NA,NA,NA,NA,NA,"",NA,NA,NA,NA,NA,NA,NA,NA,NA,NA,NA
"110","",NA,71095,"2022-11-19_11h52.19.347","KW_BodyFaceExp","2022.2.0","Win32",60.0240096,"",NA,0.183333333,0.015277778,1,0,0,1.17,"resp_neutral",NA,NA,NA,NA,NA,"","","B31.mp4","NEUTRAL","",NA,NA,NA,NA,NA,NA,"",NA,NA,NA,NA,NA,NA,0,0,0,30,1
"111","",NA,71095,"2022-11-19_11h52.19.347","KW_BodyFaceExp","2022.2.0","Win32",60.0240096,"",NA,-0.380555556,0.030555556,1,0,0,1.365,"resp_angry",NA,NA,NA,NA,NA,"","","B30.mp4","ANGRY","",NA,NA,NA,NA,NA,NA,"",NA,NA,NA,NA,NA,NA,0,1,1,29,1
"112","",NA,71095,"2022-11-19_11h52.19.347","KW_BodyFaceExp","2022.2.0","Win32",60.0240096,"",NA,-0.359722222,0.015277778,1,0,0,2.396,"resp_angry",NA,NA,NA,NA,NA,"","","B34.mp4","NEUTRAL","",NA,NA,NA,NA,NA,NA,"",NA,NA,NA,NA,NA,NA,0,2,2,33,1
"113","",NA,71095,"2022-11-19_11h52.19.347","KW_BodyFaceExp","2022.2.0","Win32",60.0240096,"",NA,-0.098611111,0.020833333,1,0,0,2.428,"resp_neutral",NA,NA,NA,NA,NA,"","","B12.mp4","NEUTRAL","",NA,NA,NA,NA,NA,NA,"",NA,NA,NA,NA,NA,NA,0,3,3,11,1
"114","",NA,71095,"2022-11-19_11h52.19.347","KW_BodyFaceExp","2022.2.0","Win32",60.0240096,"",NA,0.334722222,0.027777778,1,0,0,0.998,"resp_happy",NA,NA,NA,NA,NA,"","","B25.mp4","HAPPY","",NA,NA,NA,NA,NA,NA,"",NA,NA,NA,NA,NA,NA,0,4,4,24,1
"115","",NA,71095,"2022-11-19_11h52.19.347","KW_BodyFaceExp","2022.2.0","Win32",60.0240096,"",NA,0.334722222,0.027777778,1,0,0,0.789,"resp_happy",NA,NA,NA,NA,NA,"","","B36.mp4","ANGRY","",NA,NA,NA,NA,NA,NA,"",NA,NA,NA,NA,NA,NA,0,5,5,35,1
"116","",NA,71095,"2022-11-19_11h52.19.347","KW_BodyFaceExp","2022.2.0","Win32",60.0240096,"",NA,0.002777778,-0.001388889,1,0,0,1.838,"resp_neutral",NA,NA,NA,NA,NA,"","","B18.mp4","ANGRY","",NA,NA,NA,NA,NA,NA,"",NA,NA,NA,NA,NA,NA,0,6,6,17,1
"117","",NA,71095,"2022-11-19_11h52.19.347","KW_BodyFaceExp","2022.2.0","Win32",60.0240096,"",NA,-0.348611111,-0.023611111,1,0,0,0.71,"resp_angry",NA,NA,NA,NA,NA,"","","B39.mp4","NEUTRAL","",NA,NA,NA,NA,NA,NA,"",NA,NA,NA,NA,NA,NA,0,7,7,38,1
"118","",NA,71095,"2022-11-19_11h52.19.347","KW_BodyFaceExp","2022.2.0","Win32",60.0240096,"",NA,-0.348611111,-0.023611111,1,0,0,0.449,"resp_angry",NA,NA,NA,NA,NA,"","","B33.mp4","ANGRY","",NA,NA,NA,NA,NA,NA,"",NA,NA,NA,NA,NA,NA,0,8,8,32,1
"119","",NA,71095,"2022-11-19_11h52.19.347","KW_BodyFaceExp","2022.2.0","Win32",60.0240096,"",NA,-0.029166667,-0.031944444,1,0,0,0.68,"resp_neutral",NA,NA,NA,NA,NA,"","","B35.mp4","NEUTRAL","",NA,NA,NA,NA,NA,NA,"",NA,NA,NA,NA,NA,NA,0,9,9,34,1
"120","",NA,71095,"2022-11-19_11h52.19.347","KW_BodyFaceExp","2022.2.0","Win32",60.0240096,"",NA,0.351388889,0.0125,1,0,0,2.329,"resp_happy",NA,NA,NA,NA,NA,"","","B40.mp4","ANGRY","",NA,NA,NA,NA,NA,NA,"",NA,NA,NA,NA,NA,NA,0,10,10,39,1
"121","",NA,71095,"2022-11-19_11h52.19.347","KW_BodyFaceExp","2022.2.0","Win32",60.0240096,"",NA,0.018055556,-0.009722222,1,0,0,0.437,"resp_neutral",NA,NA,NA,NA,NA,"","","B10.mp4","NEUTRAL","",NA,NA,NA,NA,NA,NA,"",NA,NA,NA,NA,NA,NA,0,11,11,9,1
"122","",NA,71095,"2022-11-19_11h52.19.347","KW_BodyFaceExp","2022.2.0","Win32",60.0240096,"",NA,0.284722222,-0.022222222,1,0,0,0.775,"resp_happy",NA,NA,NA,NA,NA,"","","B07.mp4","HAPPY","",NA,NA,NA,NA,NA,NA,"",NA,NA,NA,NA,NA,NA,0,12,12,6,1
"123","",NA,71095,"2022-11-19_11h52.19.347","KW_BodyFaceExp","2022.2.0","Win32",60.0240096,"",NA,-0.329166667,0.031944444,1,0,0,0.783,"resp_angry",NA,NA,NA,NA,NA,"","","B04.mp4","ANGRY","",NA,NA,NA,NA,NA,NA,"",NA,NA,NA,NA,NA,NA,0,13,13,3,1
"124","",NA,71095,"2022-11-19_11h52.19.347","KW_BodyFaceExp","2022.2.0","Win32",60.0240096,"",NA,0.298611111,-0.013888889,1,0,0,1.948,"resp_happy",NA,NA,NA,NA,NA,"","","B02.mp4","ANGRY","",NA,NA,NA,NA,NA,NA,"",NA,NA,NA,NA,NA,NA,0,14,14,1,1
"125","",NA,71095,"2022-11-19_11h52.19.347","KW_BodyFaceExp","2022.2.0","Win32",60.0240096,"",NA,0.347222222,-0.029166667,1,0,0,1.465,"resp_happy",NA,NA,NA,NA,NA,"","","B16.mp4","HAPPY","",NA,NA,NA,NA,NA,NA,"",NA,NA,NA,NA,NA,NA,0,15,15,15,1
"126","",NA,71095,"2022-11-19_11h52.19.347","KW_BodyFaceExp","2022.2.0","Win32",60.0240096,"",NA,-0.3375,-0.004166667,1,0,0,1.821,"resp_angry",NA,NA,NA,NA,NA,"","","B08.mp4","NEUTRAL","",NA,NA,NA,NA,NA,NA,"",NA,NA,NA,NA,NA,NA,0,16,16,7,1
"127","",NA,71095,"2022-11-19_11h52.19.347","KW_BodyFaceExp","2022.2.0","Win32",60.0240096,"",NA,0.366666667,-0.001388889,1,0,0,1.097,"resp_happy",NA,NA,NA,NA,NA,"","","B22.mp4","HAPPY","",NA,NA,NA,NA,NA,NA,"",NA,NA,NA,NA,NA,NA,0,17,17,21,1
"128","",NA,71095,"2022-11-19_11h52.19.347","KW_BodyFaceExp","2022.2.0","Win32",60.0240096,"",NA,-0.025,-0.020833333,1,0,0,1.135,"resp_neutral",NA,NA,NA,NA,NA,"","","B42.mp4","NEUTRAL","",NA,NA,NA,NA,NA,NA,"",NA,NA,NA,NA,NA,NA,0,18,18,41,1
"129","",NA,71095,"2022-11-19_11h52.19.347","KW_BodyFaceExp","2022.2.0","Win32",60.0240096,"",NA,-0.025,-0.020833333,1,0,0,0.795,"resp_neutral",NA,NA,NA,NA,NA,"","","B23.mp4","ANGRY","",NA,NA,NA,NA,NA,NA,"",NA,NA,NA,NA,NA,NA,0,19,19,22,1
"130","",NA,71095,"2022-11-19_11h52.19.347","KW_BodyFaceExp","2022.2.0","Win32",60.0240096,"",NA,-0.302777778,0.018055556,1,0,0,0.6,"resp_angry",NA,NA,NA,NA,NA,"","","B26.mp4","NEUTRAL","",NA,NA,NA,NA,NA,NA,"",NA,NA,NA,NA,NA,NA,0,20,20,25,1
"131","",NA,71095,"2022-11-19_11h52.19.347","KW_BodyFaceExp","2022.2.0","Win32",60.0240096,"",NA,0.001388889,0.001388889,1,0,0,0.965,"resp_neutral",NA,NA,NA,NA,NA,"","","B03.mp4","NEUTRAL","",NA,NA,NA,NA,NA,NA,"",NA,NA,NA,NA,NA,NA,0,21,21,2,1
"132","",NA,71095,"2022-11-19_11h52.19.347","KW_BodyFaceExp","2022.2.0","Win32",60.0240096,"",NA,0.001388889,0.001388889,1,0,0,0.466,"resp_neutral",NA,NA,NA,NA,NA,"","","B11.mp4","ANGRY","",NA,NA,NA,NA,NA,NA,"",NA,NA,NA,NA,NA,NA,0,22,22,10,1
"133","",NA,71095,"2022-11-19_11h52.19.347","KW_BodyFaceExp","2022.2.0","Win32",60.0240096,"",NA,0.001388889,0.001388889,1,0,0,0.569,"resp_neutral",NA,NA,NA,NA,NA,"","","B32.mp4","ANGRY","",NA,NA,NA,NA,NA,NA,"",NA,NA,NA,NA,NA,NA,0,23,23,31,1
"134","",NA,71095,"2022-11-19_11h52.19.347","KW_BodyFaceExp","2022.2.0","Win32",60.0240096,"",NA,-0.377777778,0.015277778,1,0,0,0.918,"resp_angry",NA,NA,NA,NA,NA,"","","B21.mp4","NEUTRAL","",NA,NA,NA,NA,NA,NA,"",NA,NA,NA,NA,NA,NA,0,24,24,20,1
"135","",NA,71095,"2022-11-19_11h52.19.347","KW_BodyFaceExp","2022.2.0","Win32",60.0240096,"",NA,-0.377777778,0.015277778,1,0,0,1.25,"resp_angry",NA,NA,NA,NA,NA,"","","B19.mp4","ANGRY","",NA,NA,NA,NA,NA,NA,"",NA,NA,NA,NA,NA,NA,0,25,25,18,1
"136","",NA,71095,"2022-11-19_11h52.19.347","KW_BodyFaceExp","2022.2.0","Win32",60.0240096,"",NA,-0.377777778,0.015277778,1,0,0,0.413,"resp_angry",NA,NA,NA,NA,NA,"","","B15.mp4","ANGRY","",NA,NA,NA,NA,NA,NA,"",NA,NA,NA,NA,NA,NA,0,26,26,14,1
"137","",NA,71095,"2022-11-19_11h52.19.347","KW_BodyFaceExp","2022.2.0","Win32",60.0240096,"",NA,0.358333333,-0.043055556,1,0,0,1.417,"resp_happy",NA,NA,NA,NA,NA,"","","B37.mp4","ANGRY","",NA,NA,NA,NA,NA,NA,"",NA,NA,NA,NA,NA,NA,0,27,27,36,1
"138","",NA,71095,"2022-11-19_11h52.19.347","KW_BodyFaceExp","2022.2.0","Win32",60.0240096,"",NA,0.295833333,0.008333333,1,0,0,1.886,"resp_happy",NA,NA,NA,NA,NA,"","","B27.mp4","HAPPY","",NA,NA,NA,NA,NA,NA,"",NA,NA,NA,NA,NA,NA,0,28,28,26,1
"139","",NA,71095,"2022-11-19_11h52.19.347","KW_BodyFaceExp","2022.2.0","Win32",60.0240096,"",NA,0.295833333,0.008333333,1,0,0,0.627,"resp_happy",NA,NA,NA,NA,NA,"","","B41.mp4","HAPPY","",NA,NA,NA,NA,NA,NA,"",NA,NA,NA,NA,NA,NA,0,29,29,40,1
"140","",NA,71095,"2022-11-19_11h52.19.347","KW_BodyFaceExp","2022.2.0","Win32",60.0240096,"",NA,0.295833333,0.008333333,1,0,0,0.465,"resp_happy",NA,NA,NA,NA,NA,"","","B09.mp4","HAPPY","",NA,NA,NA,NA,NA,NA,"",NA,NA,NA,NA,NA,NA,0,30,30,8,1
"141","",NA,71095,"2022-11-19_11h52.19.347","KW_BodyFaceExp","2022.2.0","Win32",60.0240096,"",NA,-0.009722222,0.020833333,1,0,0,0.916,"resp_neutral",NA,NA,NA,NA,NA,"","","B05.mp4","NEUTRAL","",NA,NA,NA,NA,NA,NA,"",NA,NA,NA,NA,NA,NA,0,31,31,4,1
"142","",NA,71095,"2022-11-19_11h52.19.347","KW_BodyFaceExp","2022.2.0","Win32",60.0240096,"",NA,0.338888889,0.002777778,1,0,0,0.715,"resp_happy",NA,NA,NA,NA,NA,"","","B14.mp4","HAPPY","",NA,NA,NA,NA,NA,NA,"",NA,NA,NA,NA,NA,NA,0,32,32,13,1
"143","",NA,71095,"2022-11-19_11h52.19.347","KW_BodyFaceExp","2022.2.0","Win32",60.0240096,"",NA,-0.015277778,0.002777778,1,0,0,0.914,"resp_neutral",NA,NA,NA,NA,NA,"","","B06.mp4","ANGRY","",NA,NA,NA,NA,NA,NA,"",NA,NA,NA,NA,NA,NA,0,33,33,5,1
"144","",NA,71095,"2022-11-19_11h52.19.347","KW_BodyFaceExp","2022.2.0","Win32",60.0240096,"",NA,-0.015277778,0.002777778,1,0,0,0.554,"resp_neutral",NA,NA,NA,NA,NA,"","","B28.mp4","NEUTRAL","",NA,NA,NA,NA,NA,NA,"",NA,NA,NA,NA,NA,NA,0,34,34,27,1
"145","",NA,71095,"2022-11-19_11h52.19.347","KW_BodyFaceExp","2022.2.0","Win32",60.0240096,"",NA,0.344444444,-0.026388889,1,0,0,1.781,"resp_happy",NA,NA,NA,NA,NA,"","","B17.mp4","NEUTRAL","",NA,NA,NA,NA,NA,NA,"",NA,NA,NA,NA,NA,NA,0,35,35,16,1
"146","",NA,71095,"2022-11-19_11h52.19.347","KW_BodyFaceExp","2022.2.0","Win32",60.0240096,"",NA,0.340277778,0,1,0,0,0.915,"resp_happy",NA,NA,NA,NA,NA,"","","B20.mp4","HAPPY","",NA,NA,NA,NA,NA,NA,"",NA,NA,NA,NA,NA,NA,0,36,36,19,1
"147","",NA,71095,"2022-11-19_11h52.19.347","KW_BodyFaceExp","2022.2.0","Win32",60.0240096,"",NA,0.340277778,0,1,0,0,0.382,"resp_happy",NA,NA,NA,NA,NA,"","","B29.mp4","HAPPY","",NA,NA,NA,NA,NA,NA,"",NA,NA,NA,NA,NA,NA,0,37,37,28,1
"148","",NA,71095,"2022-11-19_11h52.19.347","KW_BodyFaceExp","2022.2.0","Win32",60.0240096,"",NA,0.340277778,0,1,0,0,0.446,"resp_happy",NA,NA,NA,NA,NA,"","","B13.mp4","HAPPY","",NA,NA,NA,NA,NA,NA,"",NA,NA,NA,NA,NA,NA,0,38,38,12,1
"149","",NA,71095,"2022-11-19_11h52.19.347","KW_BodyFaceExp","2022.2.0","Win32",60.0240096,"",NA,0.340277778,0,1,0,0,0.233,"resp_happy",NA,NA,NA,NA,NA,"","","B38.mp4","HAPPY","",NA,NA,NA,NA,NA,NA,"",NA,NA,NA,NA,NA,NA,0,39,39,37,1
"150","",NA,71095,"2022-11-19_11h52.19.347","KW_BodyFaceExp","2022.2.0","Win32",60.0240096,"",NA,0.340277778,0,1,0,0,0.833,"resp_happy",NA,NA,NA,NA,NA,"","","B01.mp4","HAPPY","",NA,NA,NA,NA,NA,NA,"",NA,NA,NA,NA,NA,NA,0,40,40,0,1
"151","",NA,71095,"2022-11-19_11h52.19.347","KW_BodyFaceExp","2022.2.0","Win32",60.0240096,"",NA,0.340277778,0,1,0,0,0.468,"resp_happy",NA,NA,NA,NA,NA,"","","B24.mp4","HAPPY","",NA,NA,NA,NA,NA,NA,"",NA,NA,NA,NA,NA,NA,0,41,41,23,1
"152","",NA,71095,"2022-11-19_11h52.19.347","KW_BodyFaceExp","2022.2.0","Win32",60.0240096,"",NA,-0.3375,0.020833333,1,0,0,1.021,"resp_angry",NA,NA,NA,NA,NA,"","","B08.mp4","NEUTRAL","",NA,NA,NA,NA,NA,NA,"",NA,NA,NA,NA,NA,NA,1,0,42,7,1
"153","",NA,71095,"2022-11-19_11h52.19.347","KW_BodyFaceExp","2022.2.0","Win32",60.0240096,"",NA,0.340277778,0.004166667,1,0,0,0.896,"resp_happy",NA,NA,NA,NA,NA,"","","B16.mp4","HAPPY","",NA,NA,NA,NA,NA,NA,"",NA,NA,NA,NA,NA,NA,1,1,43,15,1
"154","",NA,71095,"2022-11-19_11h52.19.347","KW_BodyFaceExp","2022.2.0","Win32",60.0240096,"",NA,0.020833333,0.018055556,1,0,0,0.498,"resp_neutral",NA,NA,NA,NA,NA,"","","B35.mp4","NEUTRAL","",NA,NA,NA,NA,NA,NA,"",NA,NA,NA,NA,NA,NA,1,2,44,34,1
"155","",NA,71095,"2022-11-19_11h52.19.347","KW_BodyFaceExp","2022.2.0","Win32",60.0240096,"",NA,0.323611111,0.015277778,1,0,0,0.661,"resp_happy",NA,NA,NA,NA,NA,"","","B07.mp4","HAPPY","",NA,NA,NA,NA,NA,NA,"",NA,NA,NA,NA,NA,NA,1,3,45,6,1
"156","",NA,71095,"2022-11-19_11h52.19.347","KW_BodyFaceExp","2022.2.0","Win32",60.0240096,"",NA,0.283333333,0.020833333,1,0,0,1.618,"resp_happy",NA,NA,NA,NA,NA,"","","B02.mp4","ANGRY","",NA,NA,NA,NA,NA,NA,"",NA,NA,NA,NA,NA,NA,1,4,46,1,1
"157","",NA,71095,"2022-11-19_11h52.19.347","KW_BodyFaceExp","2022.2.0","Win32",60.0240096,"",NA,-0.4375,0.038888889,1,0,0,0.613,"resp_angry",NA,NA,NA,NA,NA,"","","B36.mp4","ANGRY","",NA,NA,NA,NA,NA,NA,"",NA,NA,NA,NA,NA,NA,1,5,47,35,1
"158","",NA,71095,"2022-11-19_11h52.19.347","KW_BodyFaceExp","2022.2.0","Win32",60.0240096,"",NA,0.023611111,0.005555556,1,0,0,0.812,"resp_neutral",NA,NA,NA,NA,NA,"","","B42.mp4","NEUTRAL","",NA,NA,NA,NA,NA,NA,"",NA,NA,NA,NA,NA,NA,1,6,48,41,1
"159","",NA,71095,"2022-11-19_11h52.19.347","KW_BodyFaceExp","2022.2.0","Win32",60.0240096,"",NA,0.3625,0.001388889,1,0,0,0.783,"resp_happy",NA,NA,NA,NA,NA,"","","B27.mp4","HAPPY","",NA,NA,NA,NA,NA,NA,"",NA,NA,NA,NA,NA,NA,1,7,49,26,1
"160","",NA,71095,"2022-11-19_11h52.19.347","KW_BodyFaceExp","2022.2.0","Win32",60.0240096,"",NA,0.334722222,0.029166667,1,0,0,0.749,"resp_happy",NA,NA,NA,NA,NA,"","","B20.mp4","HAPPY","",NA,NA,NA,NA,NA,NA,"",NA,NA,NA,NA,NA,NA,1,8,50,19,1
"161","",NA,71095,"2022-11-19_11h52.19.347","KW_BodyFaceExp","2022.2.0","Win32",60.0240096,"",NA,-0.354166667,-0.023611111,1,0,0,0.947,"resp_angry",NA,NA,NA,NA,NA,"","","B39.mp4","NEUTRAL","",NA,NA,NA,NA,NA,NA,"",NA,NA,NA,NA,NA,NA,1,9,51,38,1
"162","",NA,71095,"2022-11-19_11h52.19.347","KW_BodyFaceExp","2022.2.0","Win32",60.0240096,"",NA,-0.022222222,0.015277778,1,0,0,1.165,"resp_neutral",NA,NA,NA,NA,NA,"","","B18.mp4","ANGRY","",NA,NA,NA,NA,NA,NA,"",NA,NA,NA,NA,NA,NA,1,10,52,17,1
"163","",NA,71095,"2022-11-19_11h52.19.347","KW_BodyFaceExp","2022.2.0","Win32",60.0240096,"",NA,0.331944444,0.004166667,1,0,0,0.916,"resp_happy",NA,NA,NA,NA,NA,"","","B41.mp4","HAPPY","",NA,NA,NA,NA,NA,NA,"",NA,NA,NA,NA,NA,NA,1,11,53,40,1
"164","",NA,71095,"2022-11-19_11h52.19.347","KW_BodyFaceExp","2022.2.0","Win32",60.0240096,"",NA,0.363888889,0.006944444,1,0,0,3.935,"resp_happy",NA,NA,NA,NA,NA,"","","B40.mp4","ANGRY","",NA,NA,NA,NA,NA,NA,"",NA,NA,NA,NA,NA,NA,1,12,54,39,1
"165","",NA,71095,"2022-11-19_11h52.19.347","KW_BodyFaceExp","2022.2.0","Win32",60.0240096,"",NA,0.309722222,-0.027777778,1,0,0,1.866,"resp_happy",NA,NA,NA,NA,NA,"","","B34.mp4","NEUTRAL","",NA,NA,NA,NA,NA,NA,"",NA,NA,NA,NA,NA,NA,1,13,55,33,1
"166","",NA,71095,"2022-11-19_11h52.19.347","KW_BodyFaceExp","2022.2.0","Win32",60.0240096,"",NA,0.319444444,-0.006944444,1,0,0,1.783,"resp_happy",NA,NA,NA,NA,NA,"","","B01.mp4","HAPPY","",NA,NA,NA,NA,NA,NA,"",NA,NA,NA,NA,NA,NA,1,14,56,0,1
"167","",NA,71095,"2022-11-19_11h52.19.347","KW_BodyFaceExp","2022.2.0","Win32",60.0240096,"",NA,0.319444444,-0.006944444,1,0,0,0.596,"resp_happy",NA,NA,NA,NA,NA,"","","B22.mp4","HAPPY","",NA,NA,NA,NA,NA,NA,"",NA,NA,NA,NA,NA,NA,1,15,57,21,1
"168","",NA,71095,"2022-11-19_11h52.19.347","KW_BodyFaceExp","2022.2.0","Win32",60.0240096,"",NA,0.390277778,-0.0125,1,0,0,1.13,"resp_happy",NA,NA,NA,NA,NA,"","","B06.mp4","ANGRY","",NA,NA,NA,NA,NA,NA,"",NA,NA,NA,NA,NA,NA,1,16,58,5,1
"169","",NA,71095,"2022-11-19_11h52.19.347","KW_BodyFaceExp","2022.2.0","Win32",60.0240096,"",NA,0.077777778,0.015277778,1,0,0,0.589,"resp_neutral",NA,NA,NA,NA,NA,"","","B12.mp4","NEUTRAL","",NA,NA,NA,NA,NA,NA,"",NA,NA,NA,NA,NA,NA,1,17,59,11,1
"170","",NA,71095,"2022-11-19_11h52.19.347","KW_BodyFaceExp","2022.2.0","Win32",60.0240096,"",NA,0.077777778,0.015277778,1,0,0,1.381,"resp_neutral",NA,NA,NA,NA,NA,"","","B33.mp4","ANGRY","",NA,NA,NA,NA,NA,NA,"",NA,NA,NA,NA,NA,NA,1,18,60,32,1
"171","",NA,71095,"2022-11-19_11h52.19.347","KW_BodyFaceExp","2022.2.0","Win32",60.0240096,"",NA,-0.368055556,-0.002777778,1,0,0,1.303,"resp_angry",NA,NA,NA,NA,NA,"","","B21.mp4","NEUTRAL","",NA,NA,NA,NA,NA,NA,"",NA,NA,NA,NA,NA,NA,1,19,61,20,1
"172","",NA,71095,"2022-11-19_11h52.19.347","KW_BodyFaceExp","2022.2.0","Win32",60.0240096,"",NA,0.379166667,-0.001388889,1,0,0,0.883,"resp_happy",NA,NA,NA,NA,NA,"","","B38.mp4","HAPPY","",NA,NA,NA,NA,NA,NA,"",NA,NA,NA,NA,NA,NA,1,20,62,37,1
"173","",NA,71095,"2022-11-19_11h52.19.347","KW_BodyFaceExp","2022.2.0","Win32",60.0240096,"",NA,0.379166667,-0.001388889,1,0,0,0.89,"resp_happy",NA,NA,NA,NA,NA,"","","B17.mp4","NEUTRAL","",NA,NA,NA,NA,NA,NA,"",NA,NA,NA,NA,NA,NA,1,21,63,16,1
"174","",NA,71095,"2022-11-19_11h52.19.347","KW_BodyFaceExp","2022.2.0","Win32",60.0240096,"",NA,0.029166667,0.0375,1,0,0,0.92,"resp_neutral",NA,NA,NA,NA,NA,"","","B03.mp4","NEUTRAL","",NA,NA,NA,NA,NA,NA,"",NA,NA,NA,NA,NA,NA,1,22,64,2,1
"175","",NA,71095,"2022-11-19_11h52.19.347","KW_BodyFaceExp","2022.2.0","Win32",60.0240096,"",NA,-0.016666667,-0.001388889,1,0,0,0.699,"resp_neutral",NA,NA,NA,NA,NA,"","","B30.mp4","ANGRY","",NA,NA,NA,NA,NA,NA,"",NA,NA,NA,NA,NA,NA,1,23,65,29,1
"176","",NA,71095,"2022-11-19_11h52.19.347","KW_BodyFaceExp","2022.2.0","Win32",60.0240096,"",NA,0.294444444,0.0125,1,0,0,1.365,"resp_happy",NA,NA,NA,NA,NA,"","","B14.mp4","HAPPY","",NA,NA,NA,NA,NA,NA,"",NA,NA,NA,NA,NA,NA,1,24,66,13,1
"177","",NA,71095,"2022-11-19_11h52.19.347","KW_BodyFaceExp","2022.2.0","Win32",60.0240096,"",NA,0.365277778,0.001388889,1,0,0,0.678,"resp_happy",NA,NA,NA,NA,NA,"","","B13.mp4","HAPPY","",NA,NA,NA,NA,NA,NA,"",NA,NA,NA,NA,NA,NA,1,25,67,12,1
"178","",NA,71095,"2022-11-19_11h52.19.347","KW_BodyFaceExp","2022.2.0","Win32",60.0240096,"",NA,-0.329166667,0.034722222,1,0,0,0.596,"resp_angry",NA,NA,NA,NA,NA,"","","B26.mp4","NEUTRAL","",NA,NA,NA,NA,NA,NA,"",NA,NA,NA,NA,NA,NA,1,26,68,25,1
"179","",NA,71095,"2022-11-19_11h52.19.347","KW_BodyFaceExp","2022.2.0","Win32",60.0240096,"",NA,0.365277778,0.001388889,1,0,0,1.016,"resp_happy",NA,NA,NA,NA,NA,"","","B24.mp4","HAPPY","",NA,NA,NA,NA,NA,NA,"",NA,NA,NA,NA,NA,NA,1,27,69,23,1
"180","",NA,71095,"2022-11-19_11h52.19.347","KW_BodyFaceExp","2022.2.0","Win32",60.0240096,"",NA,0.3375,-0.022222222,1,0,0,1.781,"resp_happy",NA,NA,NA,NA,NA,"","","B19.mp4","ANGRY","",NA,NA,NA,NA,NA,NA,"",NA,NA,NA,NA,NA,NA,1,28,70,18,1
"181","",NA,71095,"2022-11-19_11h52.19.347","KW_BodyFaceExp","2022.2.0","Win32",60.0240096,"",NA,0.009722222,-0.040277778,1,0,0,1.482,"resp_neutral",NA,NA,NA,NA,NA,"","","B05.mp4","NEUTRAL","",NA,NA,NA,NA,NA,NA,"",NA,NA,NA,NA,NA,NA,1,29,71,4,1
"182","",NA,71095,"2022-11-19_11h52.19.347","KW_BodyFaceExp","2022.2.0","Win32",60.0240096,"",NA,0.336111111,-0.020833333,1,0,0,0.731,"resp_happy",NA,NA,NA,NA,NA,"","","B09.mp4","HAPPY","",NA,NA,NA,NA,NA,NA,"",NA,NA,NA,NA,NA,NA,1,30,72,8,1
"183","",NA,71095,"2022-11-19_11h52.19.347","KW_BodyFaceExp","2022.2.0","Win32",60.0240096,"",NA,0.341666667,-0.031944444,1,0,0,0.556,"resp_happy",NA,NA,NA,NA,NA,"","","B29.mp4","HAPPY","",NA,NA,NA,NA,NA,NA,"",NA,NA,NA,NA,NA,NA,1,31,73,28,1
"184","",NA,71095,"2022-11-19_11h52.19.347","KW_BodyFaceExp","2022.2.0","Win32",60.0240096,"",NA,-0.368055556,0.029166667,1,0,0,0.618,"resp_angry",NA,NA,NA,NA,NA,"","","B15.mp4","ANGRY","",NA,NA,NA,NA,NA,NA,"",NA,NA,NA,NA,NA,NA,1,32,74,14,1
"185","",NA,71095,"2022-11-19_11h52.19.347","KW_BodyFaceExp","2022.2.0","Win32",60.0240096,"",NA,-0.0875,0.006944444,1,0,0,0.436,"resp_neutral",NA,NA,NA,NA,NA,"","","B32.mp4","ANGRY","",NA,NA,NA,NA,NA,NA,"",NA,NA,NA,NA,NA,NA,1,33,75,31,1
"186","",NA,71095,"2022-11-19_11h52.19.347","KW_BodyFaceExp","2022.2.0","Win32",60.0240096,"",NA,-0.020833333,0,1,0,0,1.046,"resp_neutral",NA,NA,NA,NA,NA,"","","B28.mp4","NEUTRAL","",NA,NA,NA,NA,NA,NA,"",NA,NA,NA,NA,NA,NA,1,34,76,27,1
"187","",NA,71095,"2022-11-19_11h52.19.347","KW_BodyFaceExp","2022.2.0","Win32",60.0240096,"",NA,-0.020833333,0,1,0,0,0.486,"resp_neutral",NA,NA,NA,NA,NA,"","","B31.mp4","NEUTRAL","",NA,NA,NA,NA,NA,NA,"",NA,NA,NA,NA,NA,NA,1,35,77,30,1
"188","",NA,71095,"2022-11-19_11h52.19.347","KW_BodyFaceExp","2022.2.0","Win32",60.0240096,"",NA,-0.020833333,0,1,0,0,0.336,"resp_neutral",NA,NA,NA,NA,NA,"","","B10.mp4","NEUTRAL","",NA,NA,NA,NA,NA,NA,"",NA,NA,NA,NA,NA,NA,1,36,78,9,1
"189","",NA,71095,"2022-11-19_11h52.19.347","KW_BodyFaceExp","2022.2.0","Win32",60.0240096,"",NA,0.398611111,0.016666667,1,0,0,0.881,"resp_happy",NA,NA,NA,NA,NA,"","","B37.mp4","ANGRY","",NA,NA,NA,NA,NA,NA,"",NA,NA,NA,NA,NA,NA,1,37,79,36,1
"190","",NA,71095,"2022-11-19_11h52.19.347","KW_BodyFaceExp","2022.2.0","Win32",60.0240096,"",NA,-0.0125,0.006944444,1,0,0,0.346,"resp_neutral",NA,NA,NA,NA,NA,"","","B11.mp4","ANGRY","",NA,NA,NA,NA,NA,NA,"",NA,NA,NA,NA,NA,NA,1,38,80,10,1
"191","",NA,71095,"2022-11-19_11h52.19.347","KW_BodyFaceExp","2022.2.0","Win32",60.0240096,"",NA,0.2875,0.004166667,1,0,0,1.132,"resp_happy",NA,NA,NA,NA,NA,"","","B25.mp4","HAPPY","",NA,NA,NA,NA,NA,NA,"",NA,NA,NA,NA,NA,NA,1,39,81,24,1
"192","",NA,71095,"2022-11-19_11h52.19.347","KW_BodyFaceExp","2022.2.0","Win32",60.0240096,"",NA,-0.286111111,0.013888889,1,0,0,0.654,"resp_angry",NA,NA,NA,NA,NA,"","","B04.mp4","ANGRY","",NA,NA,NA,NA,NA,NA,"",NA,NA,NA,NA,NA,NA,1,40,82,3,1
"193","",NA,71095,"2022-11-19_11h52.19.347","KW_BodyFaceExp","2022.2.0","Win32",60.0240096,"",NA,-0.322222222,0.0125,1,0,0,1.366,"resp_angry",NA,NA,NA,NA,NA,"","","B23.mp4","ANGRY","",NA,NA,NA,NA,NA,NA,"",NA,NA,NA,NA,NA,NA,1,41,83,22,1
"194","",NA,71095,"2022-11-19_11h52.19.347","KW_BodyFaceExp","2022.2.0","Win32",60.0240096,"",NA,NA,NA,NA,NA,NA,NA,"",NA,NA,NA,NA,NA,"","","","","",NA,NA,NA,NA,NA,NA,"",NA,NA,NA,NA,NA,NA,NA,NA,NA,NA,NA
"195","space",1.886,179060,"2022-11-21_20h54.33.684","KW_BodyFaceExp","2022.2.0","Win32",60.06006006,"",NA,NA,NA,NA,NA,NA,NA,"",NA,NA,NA,NA,NA,"","","","","",NA,NA,NA,NA,NA,NA,"",NA,NA,NA,NA,NA,NA,NA,NA,NA,NA,NA
"196","",NA,179060,"2022-11-21_20h54.33.684","KW_BodyFaceExp","2022.2.0","Win32",60.06006006,"right",2.3999,NA,NA,NA,NA,NA,NA,"",NA,NA,NA,NA,NA,"","","","","",NA,NA,NA,NA,NA,NA,"",NA,NA,NA,NA,NA,NA,NA,NA,NA,NA,NA
"197","",NA,179060,"2022-11-21_20h54.33.684","KW_BodyFaceExp","2022.2.0","Win32",60.06006006,"",NA,0.287574338,0.000555871,1,0,0,1.9929,"resp_happy",0,0,0,2,1,"F03.mp4","HAPPY","B03.mp4","NEUTRAL","",NA,NA,NA,NA,NA,NA,"",NA,NA,NA,NA,NA,NA,NA,NA,NA,NA,NA
"198","",NA,179060,"2022-11-21_20h54.33.684","KW_BodyFaceExp","2022.2.0","Win32",60.06006006,"",NA,-0.323989976,0.007968849,1,0,0,1.6142,"resp_angry",0,1,1,4,1,"F05.mp4","ANGRY","B05.mp4","NEUTRAL","",NA,NA,NA,NA,NA,NA,"",NA,NA,NA,NA,NA,NA,NA,NA,NA,NA,NA
"199","",NA,179060,"2022-11-21_20h54.33.684","KW_BodyFaceExp","2022.2.0","Win32",60.06006006,"",NA,-0.377733472,0.001482574,1,0,0,0.7095,"resp_angry",0,2,2,7,1,"F08.mp4","ANGRY","B08.mp4","NEUTRAL","",NA,NA,NA,NA,NA,NA,"",NA,NA,NA,NA,NA,NA,NA,NA,NA,NA,NA
"200","",NA,179060,"2022-11-21_20h54.33.684","KW_BodyFaceExp","2022.2.0","Win32",60.06006006,"",NA,-0.084923973,-0.00593035,1,0,0,0.9321,"resp_neutral",0,3,3,8,1,"F09.mp4","NEUTRAL","B09.mp4","HAPPY","",NA,NA,NA,NA,NA,NA,"",NA,NA,NA,NA,NA,NA,NA,NA,NA,NA,NA
"201","",NA,179060,"2022-11-21_20h54.33.684","KW_BodyFaceExp","2022.2.0","Win32",60.06006006,"",NA,-0.084923973,-0.00593035,1,0,0,0.5772,"resp_neutral",0,4,4,3,1,"F04.mp4","NEUTRAL","B04.mp4","ANGRY","",NA,NA,NA,NA,NA,NA,"",NA,NA,NA,NA,NA,NA,NA,NA,NA,NA,NA
"202","",NA,179060,"2022-11-21_20h54.33.684","KW_BodyFaceExp","2022.2.0","Win32",60.06006006,"",NA,-0.298971364,-0.00593035,1,0,0,0.5989,"resp_angry",0,5,5,9,1,"F10.mp4","ANGRY","B10.mp4","NEUTRAL","",NA,NA,NA,NA,NA,NA,"",NA,NA,NA,NA,NA,NA,NA,NA,NA,NA,NA
"203","",NA,179060,"2022-11-21_20h54.33.684","KW_BodyFaceExp","2022.2.0","Win32",60.06006006,"",NA,-0.357347999,0.005189009,1,0,0,0.7698,"resp_angry",0,6,6,0,1,"F01.mp4","ANGRY","B01.mp4","HAPPY","",NA,NA,NA,NA,NA,NA,"",NA,NA,NA,NA,NA,NA,NA,NA,NA,NA,NA
"204","",NA,179060,"2022-11-21_20h54.33.684","KW_BodyFaceExp","2022.2.0","Win32",60.06006006,"",NA,-0.260980311,-0.005003701,1,0,0,2.0548,"resp_angry",0,7,7,1,1,"F02.mp4","NEUTRAL","B02.mp4","ANGRY","",NA,NA,NA,NA,NA,NA,"",NA,NA,NA,NA,NA,NA,NA,NA,NA,NA,NA
"205","",NA,179060,"2022-11-21_20h54.33.684","KW_BodyFaceExp","2022.2.0","Win32",60.06006006,"",NA,-0.292485143,-0.00037067,1,0,0,0.8641,"resp_angry",0,8,8,6,1,"F07.mp4","ANGRY","B07.mp4","HAPPY","",NA,NA,NA,NA,NA,NA,"",NA,NA,NA,NA,NA,NA,NA,NA,NA,NA,NA
"206","",NA,179060,"2022-11-21_20h54.33.684","KW_BodyFaceExp","2022.2.0","Win32",60.06006006,"",NA,-0.052492598,0.007042254,1,0,0,0.7417,"resp_neutral",0,9,9,5,1,"F06.mp4","HAPPY","B06.mp4","ANGRY","",NA,NA,NA,NA,NA,NA,"",NA,NA,NA,NA,NA,NA,NA,NA,NA,NA,NA
"207","",NA,179060,"2022-11-21_20h54.33.684","KW_BodyFaceExp","2022.2.0","Win32",60.06006006,"",NA,NA,NA,NA,NA,NA,NA,"",NA,NA,NA,NA,NA,"","","","","space",3.6745,NA,NA,NA,NA,NA,"",NA,NA,NA,NA,NA,NA,NA,NA,NA,NA,NA
"208","",NA,179060,"2022-11-21_20h54.33.684","KW_BodyFaceExp","2022.2.0","Win32",60.06006006,"",NA,-0.052492598,0.007042254,1,0,0,0.6922,"resp_neutral",NA,NA,NA,NA,NA,"F04.mp4","NEUTRAL","","","",NA,0,0,0,3,1,"",NA,NA,NA,NA,NA,NA,NA,NA,NA,NA,NA
"209","",NA,179060,"2022-11-21_20h54.33.684","KW_BodyFaceExp","2022.2.0","Win32",60.06006006,"",NA,-0.339742365,0.001482574,1,0,0,0.9857,"resp_angry",NA,NA,NA,NA,NA,"F08.mp4","ANGRY","","","",NA,0,1,1,7,1,"",NA,NA,NA,NA,NA,NA,NA,NA,NA,NA,NA
"210","",NA,179060,"2022-11-21_20h54.33.684","KW_BodyFaceExp","2022.2.0","Win32",60.06006006,"",NA,-0.328622952,-0.001297266,1,0,0,0.8386,"resp_angry",NA,NA,NA,NA,NA,"F40.mp4","ANGRY","","","",NA,0,2,2,39,1,"",NA,NA,NA,NA,NA,NA,NA,NA,NA,NA,NA
"211","",NA,179060,"2022-11-21_20h54.33.684","KW_BodyFaceExp","2022.2.0","Win32",60.06006006,"",NA,0.39784101,0.027427727,1,0,0,1.1637,"resp_happy",NA,NA,NA,NA,NA,"F23.mp4","HAPPY","","","",NA,0,3,3,22,1,"",NA,NA,NA,NA,NA,NA,NA,NA,NA,NA,NA
"212","",NA,179060,"2022-11-21_20h54.33.684","KW_BodyFaceExp","2022.2.0","Win32",60.06006006,"",NA,-0.348081884,0.011675284,1,0,0,1.0743,"resp_angry",NA,NA,NA,NA,NA,"F32.mp4","ANGRY","","","",NA,0,4,4,31,1,"",NA,NA,NA,NA,NA,NA,NA,NA,NA,NA,NA
"213","",NA,179060,"2022-11-21_20h54.33.684","KW_BodyFaceExp","2022.2.0","Win32",60.06006006,"",NA,-0.022840795,0.000555871,1,0,0,0.8335,"resp_neutral",NA,NA,NA,NA,NA,"F34.mp4","HAPPY","","","",NA,0,5,5,33,1,"",NA,NA,NA,NA,NA,NA,NA,NA,NA,NA,NA
"214","",NA,179060,"2022-11-21_20h54.33.684","KW_BodyFaceExp","2022.2.0","Win32",60.06006006,"",NA,-0.332329495,0.001482574,1,0,0,1.0914,"resp_angry",NA,NA,NA,NA,NA,"F19.mp4","ANGRY","","","",NA,0,6,6,18,1,"",NA,NA,NA,NA,NA,NA,NA,NA,NA,NA,NA
"215","",NA,179060,"2022-11-21_20h54.33.684","KW_BodyFaceExp","2022.2.0","Win32",60.06006006,"",NA,-0.064538553,0.000555871,1,0,0,1.3655,"resp_neutral",NA,NA,NA,NA,NA,"F21.mp4","NEUTRAL","","","",NA,0,7,7,20,1,"",NA,NA,NA,NA,NA,NA,NA,NA,NA,NA,NA
"216","",NA,179060,"2022-11-21_20h54.33.684","KW_BodyFaceExp","2022.2.0","Win32",60.06006006,"",NA,0.383941865,0.004262414,1,0,0,1.0939,"resp_happy",NA,NA,NA,NA,NA,"F09.mp4","NEUTRAL","","","",NA,0,8,8,8,1,"",NA,NA,NA,NA,NA,NA,NA,NA,NA,NA,NA
"217","",NA,179060,"2022-11-21_20h54.33.684","KW_BodyFaceExp","2022.2.0","Win32",60.06006006,"",NA,-0.321210136,0.005189009,1,0,0,1.1247,"resp_angry",NA,NA,NA,NA,NA,"F01.mp4","ANGRY","","","",NA,0,9,9,0,1,"",NA,NA,NA,NA,NA,NA,NA,NA,NA,NA,NA
"218","",NA,179060,"2022-11-21_20h54.33.684","KW_BodyFaceExp","2022.2.0","Win32",60.06006006,"",NA,-0.054345789,0.003335711,1,0,0,1.7325,"resp_neutral",NA,NA,NA,NA,NA,"F42.mp4","NEUTRAL","","","",NA,0,10,10,41,1,"",NA,NA,NA,NA,NA,NA,NA,NA,NA,NA,NA
"219","",NA,179060,"2022-11-21_20h54.33.684","KW_BodyFaceExp","2022.2.0","Win32",60.06006006,"",NA,-0.054345789,0.003335711,1,0,0,0.9441,"resp_neutral",NA,NA,NA,NA,NA,"F27.mp4","HAPPY","","","",NA,0,11,11,26,1,"",NA,NA,NA,NA,NA,NA,NA,NA,NA,NA,NA
"220","",NA,179060,"2022-11-21_20h54.33.684","KW_BodyFaceExp","2022.2.0","Win32",60.06006006,"",NA,-0.054345789,0.003335711,1,0,0,0.5462,"resp_neutral",NA,NA,NA,NA,NA,"F11.mp4","HAPPY","","","",NA,0,12,12,10,1,"",NA,NA,NA,NA,NA,NA,NA,NA,NA,NA,NA
"221","",NA,179060,"2022-11-21_20h54.33.684","KW_BodyFaceExp","2022.2.0","Win32",60.06006006,"",NA,-0.33325609,-0.00315051,1,0,0,1.8846,"resp_angry",NA,NA,NA,NA,NA,"F33.mp4","NEUTRAL","","","",NA,0,13,13,32,1,"",NA,NA,NA,NA,NA,NA,NA,NA,NA,NA,NA
"222","",NA,179060,"2022-11-21_20h54.33.684","KW_BodyFaceExp","2022.2.0","Win32",60.06006006,"",NA,-0.33325609,-0.00315051,1,0,0,0.6443,"resp_angry",NA,NA,NA,NA,NA,"F05.mp4","ANGRY","","","",NA,0,14,14,4,1,"",NA,NA,NA,NA,NA,NA,NA,NA,NA,NA,NA
"223","",NA,179060,"2022-11-21_20h54.33.684","KW_BodyFaceExp","2022.2.0","Win32",60.06006006,"",NA,-0.33325609,-0.00315051,1,0,0,0.4225,"resp_angry",NA,NA,NA,NA,NA,"F39.mp4","NEUTRAL","","","",NA,0,15,15,38,1,"",NA,NA,NA,NA,NA,NA,NA,NA,NA,NA,NA
"224","",NA,179060,"2022-11-21_20h54.33.684","KW_BodyFaceExp","2022.2.0","Win32",60.06006006,"",NA,-0.33325609,-0.00315051,1,0,0,1.34,"resp_angry",NA,NA,NA,NA,NA,"F12.mp4","HAPPY","","","",NA,0,16,16,11,1,"",NA,NA,NA,NA,NA,NA,NA,NA,NA,NA,NA
"225","",NA,179060,"2022-11-21_20h54.33.684","KW_BodyFaceExp","2022.2.0","Win32",60.06006006,"",NA,-0.095116736,0.011675284,1,0,0,0.8905,"resp_neutral",NA,NA,NA,NA,NA,"F02.mp4","NEUTRAL","","","",NA,0,17,17,1,1,"",NA,NA,NA,NA,NA,NA,NA,NA,NA,NA,NA
"226","",NA,179060,"2022-11-21_20h54.33.684","KW_BodyFaceExp","2022.2.0","Win32",60.06006006,"",NA,-0.346228586,0.008895444,1,0,0,1.0217,"resp_angry",NA,NA,NA,NA,NA,"F41.mp4","ANGRY","","","",NA,0,18,18,40,1,"",NA,NA,NA,NA,NA,NA,NA,NA,NA,NA,NA
"227","",NA,179060,"2022-11-21_20h54.33.684","KW_BodyFaceExp","2022.2.0","Win32",60.06006006,"",NA,-0.076584507,0.009822093,1,0,0,0.539,"resp_neutral",NA,NA,NA,NA,NA,"F22.mp4","ANGRY","","","",NA,0,19,19,21,1,"",NA,NA,NA,NA,NA,NA,NA,NA,NA,NA,NA
"228","",NA,179060,"2022-11-21_20h54.33.684","KW_BodyFaceExp","2022.2.0","Win32",60.06006006,"",NA,0.378382186,0.007042254,1,0,0,0.6117,"resp_happy",NA,NA,NA,NA,NA,"F35.mp4","NEUTRAL","","","",NA,0,20,20,34,1,"",NA,NA,NA,NA,NA,NA,NA,NA,NA,NA,NA
"229","",NA,179060,"2022-11-21_20h54.33.684","KW_BodyFaceExp","2022.2.0","Win32",60.06006006,"",NA,0.399694416,-0.00037067,1,0,0,1.1268,"resp_happy",NA,NA,NA,NA,NA,"F38.mp4","HAPPY","","","",NA,0,21,21,37,1,"",NA,NA,NA,NA,NA,NA,NA,NA,NA,NA,NA
"230","",NA,179060,"2022-11-21_20h54.33.684","KW_BodyFaceExp","2022.2.0","Win32",60.06006006,"",NA,0.279234658,0.000555871,1,0,0,2.5366,"resp_happy",NA,NA,NA,NA,NA,"F13.mp4","NEUTRAL","","","",NA,0,22,22,12,1,"",NA,NA,NA,NA,NA,NA,NA,NA,NA,NA,NA
"231","",NA,179060,"2022-11-21_20h54.33.684","KW_BodyFaceExp","2022.2.0","Win32",60.06006006,"",NA,-0.000602292,0.001482574,1,0,0,0.9245,"resp_neutral",NA,NA,NA,NA,NA,"F28.mp4","NEUTRAL","","","",NA,0,23,23,27,1,"",NA,NA,NA,NA,NA,NA,NA,NA,NA,NA,NA
"232","",NA,179060,"2022-11-21_20h54.33.684","KW_BodyFaceExp","2022.2.0","Win32",60.06006006,"",NA,-0.381439854,0.008895444,1,0,0,0.5942,"resp_angry",NA,NA,NA,NA,NA,"F15.mp4","NEUTRAL","","","",NA,0,24,24,14,1,"",NA,NA,NA,NA,NA,NA,NA,NA,NA,NA,NA
"233","",NA,179060,"2022-11-21_20h54.33.684","KW_BodyFaceExp","2022.2.0","Win32",60.06006006,"",NA,0.46733695,0.005189009,1,0,0,0.7793,"resp_happy",NA,NA,NA,NA,NA,"F03.mp4","HAPPY","","","",NA,0,25,25,2,1,"",NA,NA,NA,NA,NA,NA,NA,NA,NA,NA,NA
"234","",NA,179060,"2022-11-21_20h54.33.684","KW_BodyFaceExp","2022.2.0","Win32",60.06006006,"",NA,0.034608975,0.002409169,1,0,0,1.013,"resp_neutral",NA,NA,NA,NA,NA,"F25.mp4","NEUTRAL","","","",NA,0,26,26,24,1,"",NA,NA,NA,NA,NA,NA,NA,NA,NA,NA,NA
"235","",NA,179060,"2022-11-21_20h54.33.684","KW_BodyFaceExp","2022.2.0","Win32",60.06006006,"",NA,-0.33047625,0.007042254,1,0,0,0.7623,"resp_angry",NA,NA,NA,NA,NA,"F29.mp4","ANGRY","","","",NA,0,27,27,28,1,"",NA,NA,NA,NA,NA,NA,NA,NA,NA,NA,NA
"236","",NA,179060,"2022-11-21_20h54.33.684","KW_BodyFaceExp","2022.2.0","Win32",60.06006006,"",NA,-0.33047625,0.007042254,1,0,0,0.4345,"resp_angry",NA,NA,NA,NA,NA,"F31.mp4","HAPPY","","","",NA,0,28,28,30,1,"",NA,NA,NA,NA,NA,NA,NA,NA,NA,NA,NA
"237","",NA,179060,"2022-11-21_20h54.33.684","KW_BodyFaceExp","2022.2.0","Win32",60.06006006,"",NA,-0.33047625,0.007042254,1,0,0,0.4119,"resp_angry",NA,NA,NA,NA,NA,"F17.mp4","ANGRY","","","",NA,0,29,29,16,1,"",NA,NA,NA,NA,NA,NA,NA,NA,NA,NA,NA
"238","",NA,179060,"2022-11-21_20h54.33.684","KW_BodyFaceExp","2022.2.0","Win32",60.06006006,"",NA,-0.079364293,0.008895444,1,0,0,0.5293,"resp_neutral",NA,NA,NA,NA,NA,"F18.mp4","HAPPY","","","",NA,0,30,30,17,1,"",NA,NA,NA,NA,NA,NA,NA,NA,NA,NA,NA
"239","",NA,179060,"2022-11-21_20h54.33.684","KW_BodyFaceExp","2022.2.0","Win32",60.06006006,"",NA,-0.300824662,0.006115551,1,0,0,0.6175,"resp_angry",NA,NA,NA,NA,NA,"F36.mp4","ANGRY","","","",NA,0,31,31,35,1,"",NA,NA,NA,NA,NA,NA,NA,NA,NA,NA,NA
"240","",NA,179060,"2022-11-21_20h54.33.684","KW_BodyFaceExp","2022.2.0","Win32",60.06006006,"",NA,-0.321210136,0.004262414,1,0,0,1.853,"resp_angry",NA,NA,NA,NA,NA,"F30.mp4","HAPPY","","","",NA,0,32,32,29,1,"",NA,NA,NA,NA,NA,NA,NA,NA,NA,NA,NA
"241","",NA,179060,"2022-11-21_20h54.33.684","KW_BodyFaceExp","2022.2.0","Win32",60.06006006,"",NA,-0.345302045,0.005189009,1,0,0,0.455,"resp_angry",NA,NA,NA,NA,NA,"F10.mp4","ANGRY","","","",NA,0,33,33,9,1,"",NA,NA,NA,NA,NA,NA,NA,NA,NA,NA,NA
"242","",NA,179060,"2022-11-21_20h54.33.684","KW_BodyFaceExp","2022.2.0","Win32",60.06006006,"",NA,-0.010794841,0.003335711,1,0,0,0.9639,"resp_neutral",NA,NA,NA,NA,NA,"F26.mp4","NEUTRAL","","","",NA,0,34,34,25,1,"",NA,NA,NA,NA,NA,NA,NA,NA,NA,NA,NA
"243","",NA,179060,"2022-11-21_20h54.33.684","KW_BodyFaceExp","2022.2.0","Win32",60.06006006,"",NA,0.314445925,-0.00037067,1,0,0,0.5067,"resp_happy",NA,NA,NA,NA,NA,"F37.mp4","HAPPY","","","",NA,0,35,35,36,1,"",NA,NA,NA,NA,NA,NA,NA,NA,NA,NA,NA
"244","",NA,179060,"2022-11-21_20h54.33.684","KW_BodyFaceExp","2022.2.0","Win32",60.06006006,"",NA,0.054994503,-0.002223861,1,0,0,0.8496,"resp_neutral",NA,NA,NA,NA,NA,"F20.mp4","NEUTRAL","","","",NA,0,36,36,19,1,"",NA,NA,NA,NA,NA,NA,NA,NA,NA,NA,NA
"245","",NA,179060,"2022-11-21_20h54.33.684","KW_BodyFaceExp","2022.2.0","Win32",60.06006006,"",NA,-0.361981083,-0.00593035,1,0,0,0.9479,"resp_angry",NA,NA,NA,NA,NA,"F07.mp4","ANGRY","","","",NA,0,37,37,6,1,"",NA,NA,NA,NA,NA,NA,NA,NA,NA,NA,NA
"246","",NA,179060,"2022-11-21_20h54.33.684","KW_BodyFaceExp","2022.2.0","Win32",60.06006006,"",NA,-0.300824662,0.010748689,1,0,0,1.1226,"resp_angry",NA,NA,NA,NA,NA,"F14.mp4","HAPPY","","","",NA,0,38,38,13,1,"",NA,NA,NA,NA,NA,NA,NA,NA,NA,NA,NA
"247","",NA,179060,"2022-11-21_20h54.33.684","KW_BodyFaceExp","2022.2.0","Win32",60.06006006,"",NA,0.370042828,0.007968849,1,0,0,0.5215,"resp_happy",NA,NA,NA,NA,NA,"F16.mp4","HAPPY","","","",NA,0,39,39,15,1,"",NA,NA,NA,NA,NA,NA,NA,NA,NA,NA,NA
"248","",NA,179060,"2022-11-21_20h54.33.684","KW_BodyFaceExp","2022.2.0","Win32",60.06006006,"",NA,0.03368238,0.005189009,1,0,0,4.4215,"resp_neutral",NA,NA,NA,NA,NA,"F24.mp4","ANGRY","","","",NA,0,40,40,23,1,"",NA,NA,NA,NA,NA,NA,NA,NA,NA,NA,NA
"249","",NA,179060,"2022-11-21_20h54.33.684","KW_BodyFaceExp","2022.2.0","Win32",60.06006006,"",NA,0.03368238,0.005189009,1,0,0,0.7059,"resp_neutral",NA,NA,NA,NA,NA,"F06.mp4","HAPPY","","","",NA,0,41,41,5,1,"",NA,NA,NA,NA,NA,NA,NA,NA,NA,NA,NA
"250","",NA,179060,"2022-11-21_20h54.33.684","KW_BodyFaceExp","2022.2.0","Win32",60.06006006,"",NA,-0.318430296,0.018161505,1,0,0,0.904,"resp_angry",NA,NA,NA,NA,NA,"F32.mp4","ANGRY","","","",NA,1,0,42,31,1,"",NA,NA,NA,NA,NA,NA,NA,NA,NA,NA,NA
"251","",NA,179060,"2022-11-21_20h54.33.684","KW_BodyFaceExp","2022.2.0","Win32",60.06006006,"",NA,-0.337889067,0.003335711,1,0,0,1.5654,"resp_angry",NA,NA,NA,NA,NA,"F13.mp4","NEUTRAL","","","",NA,1,1,43,12,1,"",NA,NA,NA,NA,NA,NA,NA,NA,NA,NA,NA
"252","",NA,179060,"2022-11-21_20h54.33.684","KW_BodyFaceExp","2022.2.0","Win32",60.06006006,"",NA,0.343170918,0.005189009,1,0,0,0.7547,"resp_happy",NA,NA,NA,NA,NA,"F37.mp4","HAPPY","","","",NA,1,2,44,36,1,"",NA,NA,NA,NA,NA,NA,NA,NA,NA,NA,NA
"253","",NA,179060,"2022-11-21_20h54.33.684","KW_BodyFaceExp","2022.2.0","Win32",60.06006006,"",NA,-0.057125468,0.002409169,1,0,0,1.0036,"resp_neutral",NA,NA,NA,NA,NA,"F15.mp4","NEUTRAL","","","",NA,1,3,45,14,1,"",NA,NA,NA,NA,NA,NA,NA,NA,NA,NA,NA
"254","",NA,179060,"2022-11-21_20h54.33.684","KW_BodyFaceExp","2022.2.0","Win32",60.06006006,"",NA,0.060554182,0.001482574,1,0,0,1.2069,"resp_neutral",NA,NA,NA,NA,NA,"F20.mp4","NEUTRAL","","","",NA,1,4,46,19,1,"",NA,NA,NA,NA,NA,NA,NA,NA,NA,NA,NA
"255","",NA,179060,"2022-11-21_20h54.33.684","KW_BodyFaceExp","2022.2.0","Win32",60.06006006,"",NA,0.060554182,0.001482574,1,0,0,0.4501,"resp_neutral",NA,NA,NA,NA,NA,"F26.mp4","NEUTRAL","","","",NA,1,5,47,25,1,"",NA,NA,NA,NA,NA,NA,NA,NA,NA,NA,NA
"256","",NA,179060,"2022-11-21_20h54.33.684","KW_BodyFaceExp","2022.2.0","Win32",60.06006006,"",NA,-0.319356838,0.000555871,1,0,0,0.8593,"resp_angry",NA,NA,NA,NA,NA,"F02.mp4","NEUTRAL","","","",NA,1,6,48,1,1,"",NA,NA,NA,NA,NA,NA,NA,NA,NA,NA,NA
"257","",NA,179060,"2022-11-21_20h54.33.684","KW_BodyFaceExp","2022.2.0","Win32",60.06006006,"",NA,-0.389779373,0.000555871,1,0,0,0.4524,"resp_angry",NA,NA,NA,NA,NA,"F40.mp4","ANGRY","","","",NA,1,7,49,39,1,"",NA,NA,NA,NA,NA,NA,NA,NA,NA,NA,NA
"258","",NA,179060,"2022-11-21_20h54.33.684","KW_BodyFaceExp","2022.2.0","Win32",60.06006006,"",NA,-0.025620796,0.002409169,1,0,0,0.5089,"resp_neutral",NA,NA,NA,NA,NA,"F36.mp4","ANGRY","","","",NA,1,8,50,35,1,"",NA,NA,NA,NA,NA,NA,NA,NA,NA,NA,NA
"259","",NA,179060,"2022-11-21_20h54.33.684","KW_BodyFaceExp","2022.2.0","Win32",60.06006006,"",NA,-0.323063273,-0.014269923,1,0,0,1.1601,"resp_angry",NA,NA,NA,NA,NA,"F22.mp4","ANGRY","","","",NA,1,9,51,21,1,"",NA,NA,NA,NA,NA,NA,NA,NA,NA,NA,NA
"260","",NA,179060,"2022-11-21_20h54.33.684","KW_BodyFaceExp","2022.2.0","Win32",60.06006006,"",NA,0.315372521,0.002409169,1,0,0,0.6391,"resp_happy",NA,NA,NA,NA,NA,"F34.mp4","HAPPY","","","",NA,1,10,52,33,1,"",NA,NA,NA,NA,NA,NA,NA,NA,NA,NA,NA
"261","",NA,179060,"2022-11-21_20h54.33.684","KW_BodyFaceExp","2022.2.0","Win32",60.06006006,"",NA,0.285720933,0.014455124,1,0,0,1.2332,"resp_happy",NA,NA,NA,NA,NA,"F18.mp4","HAPPY","","","",NA,1,11,53,17,1,"",NA,NA,NA,NA,NA,NA,NA,NA,NA,NA,NA
"262","",NA,179060,"2022-11-21_20h54.33.684","KW_BodyFaceExp","2022.2.0","Win32",60.06006006,"",NA,0.285720933,0.014455124,1,0,0,0.371,"resp_happy",NA,NA,NA,NA,NA,"F35.mp4","NEUTRAL","","","",NA,1,12,54,34,1,"",NA,NA,NA,NA,NA,NA,NA,NA,NA,NA,NA
"263","",NA,179060,"2022-11-21_20h54.33.684","KW_BodyFaceExp","2022.2.0","Win32",60.06006006,"",NA,0.285720933,0.014455124,1,0,0,0.6249,"resp_happy",NA,NA,NA,NA,NA,"F03.mp4","HAPPY","","","",NA,1,13,55,2,1,"",NA,NA,NA,NA,NA,NA,NA,NA,NA,NA,NA
"264","",NA,179060,"2022-11-21_20h54.33.684","KW_BodyFaceExp","2022.2.0","Win32",60.06006006,"",NA,0.042948548,0.007968849,1,0,0,1.3733,"resp_neutral",NA,NA,NA,NA,NA,"F14.mp4","HAPPY","","","",NA,1,14,56,13,1,"",NA,NA,NA,NA,NA,NA,NA,NA,NA,NA,NA
"265","",NA,179060,"2022-11-21_20h54.33.684","KW_BodyFaceExp","2022.2.0","Win32",60.06006006,"",NA,0.307033055,0.004262414,1,0,0,0.6178,"resp_happy",NA,NA,NA,NA,NA,"F16.mp4","HAPPY","","","",NA,1,15,57,15,1,"",NA,NA,NA,NA,NA,NA,NA,NA,NA,NA,NA
"266","",NA,179060,"2022-11-21_20h54.33.684","KW_BodyFaceExp","2022.2.0","Win32",60.06006006,"",NA,-0.339742365,0.005189009,1,0,0,0.5585,"resp_angry",NA,NA,NA,NA,NA,"F29.mp4","ANGRY","","","",NA,1,16,58,28,1,"",NA,NA,NA,NA,NA,NA,NA,NA,NA,NA,NA
"267","",NA,179060,"2022-11-21_20h54.33.684","KW_BodyFaceExp","2022.2.0","Win32",60.06006006,"",NA,-0.032107071,0.005189009,1,0,0,0.5359,"resp_neutral",NA,NA,NA,NA,NA,"F27.mp4","HAPPY","","","",NA,1,17,59,26,1,"",NA,NA,NA,NA,NA,NA,NA,NA,NA,NA,NA
"268","",NA,179060,"2022-11-21_20h54.33.684","KW_BodyFaceExp","2022.2.0","Win32",60.06006006,"",NA,-0.032107071,0.005189009,1,0,0,0.9845,"resp_neutral",NA,NA,NA,NA,NA,"F21.mp4","NEUTRAL","","","",NA,1,18,60,20,1,"",NA,NA,NA,NA,NA,NA,NA,NA,NA,NA,NA
"269","",NA,179060,"2022-11-21_20h54.33.684","KW_BodyFaceExp","2022.2.0","Win32",60.06006006,"",NA,-0.33047625,0.000555871,1,0,0,0.8135,"resp_angry",NA,NA,NA,NA,NA,"F08.mp4","ANGRY","","","",NA,1,19,61,7,1,"",NA,NA,NA,NA,NA,NA,NA,NA,NA,NA,NA
"270","",NA,179060,"2022-11-21_20h54.33.684","KW_BodyFaceExp","2022.2.0","Win32",60.06006006,"",NA,-0.329549655,0.000555871,1,0,0,0.4348,"resp_angry",NA,NA,NA,NA,NA,"F09.mp4","NEUTRAL","","","",NA,1,20,62,8,1,"",NA,NA,NA,NA,NA,NA,NA,NA,NA,NA,NA
"271","",NA,179060,"2022-11-21_20h54.33.684","KW_BodyFaceExp","2022.2.0","Win32",60.06006006,"",NA,-0.329549655,0.000555871,1,0,0,0.3524,"resp_angry",NA,NA,NA,NA,NA,"F07.mp4","ANGRY","","","",NA,1,21,63,6,1,"",NA,NA,NA,NA,NA,NA,NA,NA,NA,NA,NA
"272","",NA,179060,"2022-11-21_20h54.33.684","KW_BodyFaceExp","2022.2.0","Win32",60.06006006,"",NA,-0.329549655,0.000555871,1,0,0,0.7215,"resp_angry",NA,NA,NA,NA,NA,"F31.mp4","HAPPY","","","",NA,1,22,64,30,1,"",NA,NA,NA,NA,NA,NA,NA,NA,NA,NA,NA
"273","",NA,179060,"2022-11-21_20h54.33.684","KW_BodyFaceExp","2022.2.0","Win32",60.06006006,"",NA,-0.083070782,-0.00037067,1,0,0,0.4131,"resp_neutral",NA,NA,NA,NA,NA,"F11.mp4","HAPPY","","","",NA,1,23,65,10,1,"",NA,NA,NA,NA,NA,NA,NA,NA,NA,NA,NA
"274","",NA,179060,"2022-11-21_20h54.33.684","KW_BodyFaceExp","2022.2.0","Win32",60.06006006,"",NA,-0.083070782,-0.00037067,1,0,0,0.4058,"resp_neutral",NA,NA,NA,NA,NA,"F04.mp4","NEUTRAL","","","",NA,1,24,66,3,1,"",NA,NA,NA,NA,NA,NA,NA,NA,NA,NA,NA
"275","",NA,179060,"2022-11-21_20h54.33.684","KW_BodyFaceExp","2022.2.0","Win32",60.06006006,"",NA,-0.294338388,-0.00315051,1,0,0,0.6237,"resp_angry",NA,NA,NA,NA,NA,"F01.mp4","ANGRY","","","",NA,1,25,67,0,1,"",NA,NA,NA,NA,NA,NA,NA,NA,NA,NA,NA
"276","",NA,179060,"2022-11-21_20h54.33.684","KW_BodyFaceExp","2022.2.0","Win32",60.06006006,"",NA,-0.049712705,0.001482574,1,0,0,0.8717,"resp_neutral",NA,NA,NA,NA,NA,"F12.mp4","HAPPY","","","",NA,1,26,68,11,1,"",NA,NA,NA,NA,NA,NA,NA,NA,NA,NA,NA
"277","",NA,179060,"2022-11-21_20h54.33.684","KW_BodyFaceExp","2022.2.0","Win32",60.06006006,"",NA,-0.049712705,0.001482574,1,0,0,1.0421,"resp_neutral",NA,NA,NA,NA,NA,"F33.mp4","NEUTRAL","","","",NA,1,27,69,32,1,"",NA,NA,NA,NA,NA,NA,NA,NA,NA,NA,NA
"278","",NA,179060,"2022-11-21_20h54.33.684","KW_BodyFaceExp","2022.2.0","Win32",60.06006006,"",NA,-0.321210136,-0.00315051,1,0,0,0.8311,"resp_angry",NA,NA,NA,NA,NA,"F39.mp4","NEUTRAL","","","",NA,1,28,70,38,1,"",NA,NA,NA,NA,NA,NA,NA,NA,NA,NA,NA
"279","",NA,179060,"2022-11-21_20h54.33.684","KW_BodyFaceExp","2022.2.0","Win32",60.06006006,"",NA,-0.321210136,-0.00315051,1,0,0,0.5254,"resp_angry",NA,NA,NA,NA,NA,"F38.mp4","HAPPY","","","",NA,1,29,71,37,1,"",NA,NA,NA,NA,NA,NA,NA,NA,NA,NA,NA
"280","",NA,179060,"2022-11-21_20h54.33.684","KW_BodyFaceExp","2022.2.0","Win32",60.06006006,"",NA,-0.321210136,-0.00315051,1,0,0,0.999,"resp_angry",NA,NA,NA,NA,NA,"F24.mp4","ANGRY","","","",NA,1,30,72,23,1,"",NA,NA,NA,NA,NA,NA,NA,NA,NA,NA,NA
"281","",NA,179060,"2022-11-21_20h54.33.684","KW_BodyFaceExp","2022.2.0","Win32",60.06006006,"",NA,-0.321210136,-0.00315051,1,0,0,0.3641,"resp_angry",NA,NA,NA,NA,NA,"F41.mp4","ANGRY","","","",NA,1,31,73,40,1,"",NA,NA,NA,NA,NA,NA,NA,NA,NA,NA,NA
"282","",NA,179060,"2022-11-21_20h54.33.684","KW_BodyFaceExp","2022.2.0","Win32",60.06006006,"",NA,-0.059905469,0.024647887,1,0,0,0.6382,"resp_neutral",NA,NA,NA,NA,NA,"F28.mp4","NEUTRAL","","","",NA,1,32,74,27,1,"",NA,NA,NA,NA,NA,NA,NA,NA,NA,NA,NA
"283","",NA,179060,"2022-11-21_20h54.33.684","KW_BodyFaceExp","2022.2.0","Win32",60.06006006,"",NA,-0.299898067,-0.012416625,1,0,0,0.647,"resp_angry",NA,NA,NA,NA,NA,"F10.mp4","ANGRY","","","",NA,1,33,75,9,1,"",NA,NA,NA,NA,NA,NA,NA,NA,NA,NA,NA
"284","",NA,179060,"2022-11-21_20h54.33.684","KW_BodyFaceExp","2022.2.0","Win32",60.06006006,"",NA,-0.058978873,-0.005003701,1,0,0,1.1911,"resp_neutral",NA,NA,NA,NA,NA,"F25.mp4","NEUTRAL","","","",NA,1,34,76,24,1,"",NA,NA,NA,NA,NA,NA,NA,NA,NA,NA,NA
"285","",NA,179060,"2022-11-21_20h54.33.684","KW_BodyFaceExp","2022.2.0","Win32",60.06006006,"",NA,0.308886246,-0.007783541,1,0,0,0.373,"resp_happy",NA,NA,NA,NA,NA,"F42.mp4","NEUTRAL","","","",NA,1,35,77,41,1,"",NA,NA,NA,NA,NA,NA,NA,NA,NA,NA,NA
"286","",NA,179060,"2022-11-21_20h54.33.684","KW_BodyFaceExp","2022.2.0","Win32",60.06006006,"",NA,-0.446302817,-0.00871019,1,0,0,0.8327,"resp_angry",NA,NA,NA,NA,NA,"F05.mp4","ANGRY","","","",NA,1,36,78,4,1,"",NA,NA,NA,NA,NA,NA,NA,NA,NA,NA,NA
"287","",NA,179060,"2022-11-21_20h54.33.684","KW_BodyFaceExp","2022.2.0","Win32",60.06006006,"",NA,-0.068244934,-0.005003701,1,0,0,0.7862,"resp_neutral",NA,NA,NA,NA,NA,"F30.mp4","HAPPY","","","",NA,1,37,79,29,1,"",NA,NA,NA,NA,NA,NA,NA,NA,NA,NA,NA
"288","",NA,179060,"2022-11-21_20h54.33.684","KW_BodyFaceExp","2022.2.0","Win32",60.06006006,"",NA,-0.33047625,-0.002223861,1,0,0,0.5769,"resp_angry",NA,NA,NA,NA,NA,"F17.mp4","ANGRY","","","",NA,1,38,80,16,1,"",NA,NA,NA,NA,NA,NA,NA,NA,NA,NA,NA
"289","",NA,179060,"2022-11-21_20h54.33.684","KW_BodyFaceExp","2022.2.0","Win32",60.06006006,"",NA,-0.233181806,0.001482574,1,0,0,0.9486,"resp_angry",NA,NA,NA,NA,NA,"F06.mp4","HAPPY","","","",NA,1,39,81,5,1,"",NA,NA,NA,NA,NA,NA,NA,NA,NA,NA,NA
"290","",NA,179060,"2022-11-21_20h54.33.684","KW_BodyFaceExp","2022.2.0","Win32",60.06006006,"",NA,-0.288778708,0.001482574,1,0,0,0.6007,"resp_angry",NA,NA,NA,NA,NA,"F19.mp4","ANGRY","","","",NA,1,40,82,18,1,"",NA,NA,NA,NA,NA,NA,NA,NA,NA,NA,NA
"291","",NA,179060,"2022-11-21_20h54.33.684","KW_BodyFaceExp","2022.2.0","Win32",60.06006006,"",NA,0.465483759,-0.012416625,1,0,0,0.7731,"resp_happy",NA,NA,NA,NA,NA,"F23.mp4","HAPPY","","","",NA,1,41,83,22,1,"",NA,NA,NA,NA,NA,NA,NA,NA,NA,NA,NA
"292","",NA,179060,"2022-11-21_20h54.33.684","KW_BodyFaceExp","2022.2.0","Win32",60.06006006,"",NA,NA,NA,NA,NA,NA,NA,"",NA,NA,NA,NA,NA,"","","","","",NA,NA,NA,NA,NA,NA,"right",6.8225,NA,NA,NA,NA,NA,NA,NA,NA,NA,NA
"293","",NA,179060,"2022-11-21_20h54.33.684","KW_BodyFaceExp","2022.2.0","Win32",60.06006006,"",NA,0.359849957,-0.00037067,1,0,0,1.6515,"resp_happy",NA,NA,NA,NA,NA,"F09.mp4","NEUTRAL","B09.mp4","HAPPY","",NA,NA,NA,NA,NA,NA,"",NA,0,0,0,8,1,NA,NA,NA,NA,NA
"294","",NA,179060,"2022-11-21_20h54.33.684","KW_BodyFaceExp","2022.2.0","Win32",60.06006006,"",NA,-0.339742365,0.003335711,1,0,0,1.0598,"resp_angry",NA,NA,NA,NA,NA,"F02.mp4","NEUTRAL","B02.mp4","ANGRY","",NA,NA,NA,NA,NA,NA,"",NA,0,1,1,1,1,NA,NA,NA,NA,NA
"295","",NA,179060,"2022-11-21_20h54.33.684","KW_BodyFaceExp","2022.2.0","Win32",60.06006006,"",NA,0.027196105,0.027427727,1,0,0,2.4326,"resp_neutral",NA,NA,NA,NA,NA,"F04.mp4","NEUTRAL","B04.mp4","ANGRY","",NA,NA,NA,NA,NA,NA,"",NA,0,2,2,3,1,NA,NA,NA,NA,NA
"296","",NA,179060,"2022-11-21_20h54.33.684","KW_BodyFaceExp","2022.2.0","Win32",60.06006006,"",NA,-0.288778708,-0.004077105,1,0,0,1.2245,"resp_angry",NA,NA,NA,NA,NA,"F05.mp4","ANGRY","B05.mp4","NEUTRAL","",NA,NA,NA,NA,NA,NA,"",NA,0,3,3,4,1,NA,NA,NA,NA,NA
"297","",NA,179060,"2022-11-21_20h54.33.684","KW_BodyFaceExp","2022.2.0","Win32",60.06006006,"",NA,0.364483148,0.017234963,1,0,0,1.081,"resp_happy",NA,NA,NA,NA,NA,"F07.mp4","ANGRY","B07.mp4","HAPPY","",NA,NA,NA,NA,NA,NA,"",NA,0,4,4,6,1,NA,NA,NA,NA,NA
"298","",NA,179060,"2022-11-21_20h54.33.684","KW_BodyFaceExp","2022.2.0","Win32",60.06006006,"",NA,0.02070983,0.014455124,1,0,0,1.329,"resp_neutral",NA,NA,NA,NA,NA,"F10.mp4","ANGRY","B10.mp4","NEUTRAL","",NA,NA,NA,NA,NA,NA,"",NA,0,5,5,9,1,NA,NA,NA,NA,NA
"299","",NA,179060,"2022-11-21_20h54.33.684","KW_BodyFaceExp","2022.2.0","Win32",60.06006006,"",NA,-0.328622952,0.029280918,1,0,0,1.558,"resp_angry",NA,NA,NA,NA,NA,"F01.mp4","ANGRY","B01.mp4","HAPPY","",NA,NA,NA,NA,NA,NA,"",NA,0,6,6,0,1,NA,NA,NA,NA,NA
"300","",NA,179060,"2022-11-21_20h54.33.684","KW_BodyFaceExp","2022.2.0","Win32",60.06006006,"",NA,0.310739437,0.004262414,1,0,0,1.5771,"resp_happy",NA,NA,NA,NA,NA,"F08.mp4","ANGRY","B08.mp4","NEUTRAL","",NA,NA,NA,NA,NA,NA,"",NA,0,7,7,7,1,NA,NA,NA,NA,NA
"301","",NA,179060,"2022-11-21_20h54.33.684","KW_BodyFaceExp","2022.2.0","Win32",60.06006006,"",NA,0.298693482,0.008895444,1,0,0,2.1974,"resp_happy",NA,NA,NA,NA,NA,"F03.mp4","HAPPY","B03.mp4","NEUTRAL","",NA,NA,NA,NA,NA,NA,"",NA,0,8,8,2,1,NA,NA,NA,NA,NA
"302","",NA,179060,"2022-11-21_20h54.33.684","KW_BodyFaceExp","2022.2.0","Win32",60.06006006,"",NA,-0.420357664,0.008895444,1,0,0,1.7383,"resp_angry",NA,NA,NA,NA,NA,"F06.mp4","HAPPY","B06.mp4","ANGRY","",NA,NA,NA,NA,NA,NA,"",NA,0,9,9,5,1,NA,NA,NA,NA,NA
"303","",NA,179060,"2022-11-21_20h54.33.684","KW_BodyFaceExp","2022.2.0","Win32",60.06006006,"",NA,NA,NA,NA,NA,NA,NA,"",NA,NA,NA,NA,NA,"","","","","space",3.0809,NA,NA,NA,NA,NA,"",NA,NA,NA,NA,NA,NA,NA,NA,NA,NA,NA
"304","",NA,179060,"2022-11-21_20h54.33.684","KW_BodyFaceExp","2022.2.0","Win32",60.06006006,"",NA,-0.418504419,0.008895444,1,0,0,1.0892,"resp_angry",NA,NA,NA,NA,NA,"","","B34.mp4","NEUTRAL","",NA,NA,NA,NA,NA,NA,"",NA,NA,NA,NA,NA,NA,0,0,0,33,1
"305","",NA,179060,"2022-11-21_20h54.33.684","KW_BodyFaceExp","2022.2.0","Win32",60.06006006,"",NA,-0.092336735,0.002409169,1,0,0,1.0732,"resp_neutral",NA,NA,NA,NA,NA,"","","B10.mp4","NEUTRAL","",NA,NA,NA,NA,NA,NA,"",NA,NA,NA,NA,NA,NA,0,1,1,9,1
"306","",NA,179060,"2022-11-21_20h54.33.684","KW_BodyFaceExp","2022.2.0","Win32",60.06006006,"",NA,-0.306384342,0.005189009,1,0,0,1.5993,"resp_angry",NA,NA,NA,NA,NA,"","","B36.mp4","ANGRY","",NA,NA,NA,NA,NA,NA,"",NA,NA,NA,NA,NA,NA,0,2,2,35,1
"307","",NA,179060,"2022-11-21_20h54.33.684","KW_BodyFaceExp","2022.2.0","Win32",60.06006006,"",NA,0.3209322,-0.004077105,1,0,0,1.8078,"resp_happy",NA,NA,NA,NA,NA,"","","B08.mp4","NEUTRAL","",NA,NA,NA,NA,NA,NA,"",NA,NA,NA,NA,NA,NA,0,3,3,7,1
"308","",NA,179060,"2022-11-21_20h54.33.684","KW_BodyFaceExp","2022.2.0","Win32",60.06006006,"",NA,-0.395339106,0.023721185,1,0,0,1.0352,"resp_angry",NA,NA,NA,NA,NA,"","","B04.mp4","ANGRY","",NA,NA,NA,NA,NA,NA,"",NA,NA,NA,NA,NA,NA,0,4,4,3,1
"309","",NA,179060,"2022-11-21_20h54.33.684","KW_BodyFaceExp","2022.2.0","Win32",60.06006006,"",NA,-0.044153025,-0.002223861,1,0,0,1.4437,"resp_neutral",NA,NA,NA,NA,NA,"","","B03.mp4","NEUTRAL","",NA,NA,NA,NA,NA,NA,"",NA,NA,NA,NA,NA,NA,0,5,5,2,1
"310","",NA,179060,"2022-11-21_20h54.33.684","KW_BodyFaceExp","2022.2.0","Win32",60.06006006,"",NA,0.331124964,0.006115551,1,0,0,2.89,"resp_happy",NA,NA,NA,NA,NA,"","","B16.mp4","HAPPY","",NA,NA,NA,NA,NA,NA,"",NA,NA,NA,NA,NA,NA,0,6,6,15,1
"311","",NA,179060,"2022-11-21_20h54.33.684","KW_BodyFaceExp","2022.2.0","Win32",60.06006006,"",NA,-0.309164182,-0.002223861,1,0,0,0.9776,"resp_angry",NA,NA,NA,NA,NA,"","","B02.mp4","ANGRY","",NA,NA,NA,NA,NA,NA,"",NA,NA,NA,NA,NA,NA,0,7,7,1,1
"312","",NA,179060,"2022-11-21_20h54.33.684","KW_BodyFaceExp","2022.2.0","Win32",60.06006006,"",NA,0.394134736,-0.005003701,1,0,0,1.0496,"resp_happy",NA,NA,NA,NA,NA,"","","B24.mp4","HAPPY","",NA,NA,NA,NA,NA,NA,"",NA,NA,NA,NA,NA,NA,0,8,8,23,1
"313","",NA,179060,"2022-11-21_20h54.33.684","KW_BodyFaceExp","2022.2.0","Win32",60.06006006,"",NA,-0.369393899,0.001482574,1,0,0,1.1678,"resp_angry",NA,NA,NA,NA,NA,"","","B31.mp4","NEUTRAL","",NA,NA,NA,NA,NA,NA,"",NA,NA,NA,NA,NA,NA,0,9,9,30,1
"314","",NA,179060,"2022-11-21_20h54.33.684","KW_BodyFaceExp","2022.2.0","Win32",60.06006006,"",NA,-0.442596274,0.017234963,1,0,0,0.7723,"resp_angry",NA,NA,NA,NA,NA,"","","B06.mp4","ANGRY","",NA,NA,NA,NA,NA,NA,"",NA,NA,NA,NA,NA,NA,0,10,10,5,1
"315","",NA,179060,"2022-11-21_20h54.33.684","KW_BodyFaceExp","2022.2.0","Win32",60.06006006,"",NA,-0.313797158,-0.00315051,1,0,0,1.6407,"resp_angry",NA,NA,NA,NA,NA,"","","B32.mp4","ANGRY","",NA,NA,NA,NA,NA,NA,"",NA,NA,NA,NA,NA,NA,0,11,11,31,1
"316","",NA,179060,"2022-11-21_20h54.33.684","KW_BodyFaceExp","2022.2.0","Win32",60.06006006,"",NA,-0.309164182,0.007042254,1,0,0,2.1979,"resp_angry",NA,NA,NA,NA,NA,"","","B19.mp4","ANGRY","",NA,NA,NA,NA,NA,NA,"",NA,NA,NA,NA,NA,NA,0,12,12,18,1
"317","",NA,179060,"2022-11-21_20h54.33.684","KW_BodyFaceExp","2022.2.0","Win32",60.06006006,"",NA,-0.068244934,0.007042254,1,0,0,1.6328,"resp_neutral",NA,NA,NA,NA,NA,"","","B23.mp4","ANGRY","",NA,NA,NA,NA,NA,NA,"",NA,NA,NA,NA,NA,NA,0,13,13,22,1
"318","",NA,179060,"2022-11-21_20h54.33.684","KW_BodyFaceExp","2022.2.0","Win32",60.06006006,"",NA,-0.274879456,0.007042254,1,0,0,1.7627,"resp_angry",NA,NA,NA,NA,NA,"","","B15.mp4","ANGRY","",NA,NA,NA,NA,NA,NA,"",NA,NA,NA,NA,NA,NA,0,14,14,14,1
"319","",NA,179060,"2022-11-21_20h54.33.684","KW_BodyFaceExp","2022.2.0","Win32",60.06006006,"",NA,-0.006161972,0.003335711,1,0,0,1.8973,"resp_neutral",NA,NA,NA,NA,NA,"","","B39.mp4","NEUTRAL","",NA,NA,NA,NA,NA,NA,"",NA,NA,NA,NA,NA,NA,0,15,15,38,1
"320","",NA,179060,"2022-11-21_20h54.33.684","KW_BodyFaceExp","2022.2.0","Win32",60.06006006,"",NA,-0.006161972,0.003335711,1,0,0,1.3371,"resp_neutral",NA,NA,NA,NA,NA,"","","B25.mp4","HAPPY","",NA,NA,NA,NA,NA,NA,"",NA,NA,NA,NA,NA,NA,0,16,16,24,1
"321","",NA,179060,"2022-11-21_20h54.33.684","KW_BodyFaceExp","2022.2.0","Win32",60.06006006,"",NA,-0.392559266,0.025574483,1,0,0,0.9392,"resp_angry",NA,NA,NA,NA,NA,"","","B17.mp4","NEUTRAL","",NA,NA,NA,NA,NA,NA,"",NA,NA,NA,NA,NA,NA,0,17,17,16,1
"322","",NA,179060,"2022-11-21_20h54.33.684","KW_BodyFaceExp","2022.2.0","Win32",60.06006006,"",NA,0.367262827,0.002409169,1,0,0,1.2718,"resp_happy",NA,NA,NA,NA,NA,"","","B22.mp4","HAPPY","",NA,NA,NA,NA,NA,NA,"",NA,NA,NA,NA,NA,NA,0,18,18,21,1
"323","",NA,179060,"2022-11-21_20h54.33.684","KW_BodyFaceExp","2022.2.0","Win32",60.06006006,"",NA,-0.0219142,0.012601933,1,0,0,1.073,"resp_neutral",NA,NA,NA,NA,NA,"","","B12.mp4","NEUTRAL","",NA,NA,NA,NA,NA,NA,"",NA,NA,NA,NA,NA,NA,0,19,19,11,1
"324","",NA,179060,"2022-11-21_20h54.33.684","KW_BodyFaceExp","2022.2.0","Win32",60.06006006,"",NA,-0.311017319,0.029280918,1,0,0,0.9312,"resp_angry",NA,NA,NA,NA,NA,"","","B28.mp4","NEUTRAL","",NA,NA,NA,NA,NA,NA,"",NA,NA,NA,NA,NA,NA,0,20,20,27,1
"325","",NA,179060,"2022-11-21_20h54.33.684","KW_BodyFaceExp","2022.2.0","Win32",60.06006006,"",NA,-0.315650456,0.016308368,1,0,0,0.7796,"resp_angry",NA,NA,NA,NA,NA,"","","B29.mp4","HAPPY","",NA,NA,NA,NA,NA,NA,"",NA,NA,NA,NA,NA,NA,0,21,21,28,1
"326","",NA,179060,"2022-11-21_20h54.33.684","KW_BodyFaceExp","2022.2.0","Win32",60.06006006,"",NA,-0.269319884,0.007968849,1,0,0,1.0458,"resp_angry",NA,NA,NA,NA,NA,"","","B42.mp4","NEUTRAL","",NA,NA,NA,NA,NA,NA,"",NA,NA,NA,NA,NA,NA,0,22,22,41,1
"327","",NA,179060,"2022-11-21_20h54.33.684","KW_BodyFaceExp","2022.2.0","Win32",60.06006006,"",NA,-0.296191524,0.005189009,1,0,0,1.0881,"resp_angry",NA,NA,NA,NA,NA,"","","B40.mp4","ANGRY","",NA,NA,NA,NA,NA,NA,"",NA,NA,NA,NA,NA,NA,0,23,23,39,1
"328","",NA,179060,"2022-11-21_20h54.33.684","KW_BodyFaceExp","2022.2.0","Win32",60.06006006,"",NA,0.387648462,0.005189009,1,0,0,1.2649,"resp_happy",NA,NA,NA,NA,NA,"","","B20.mp4","HAPPY","",NA,NA,NA,NA,NA,NA,"",NA,NA,NA,NA,NA,NA,0,24,24,19,1
"329","",NA,179060,"2022-11-21_20h54.33.684","KW_BodyFaceExp","2022.2.0","Win32",60.06006006,"",NA,-0.312870617,-0.00037067,1,0,0,1.1877,"resp_angry",NA,NA,NA,NA,NA,"","","B33.mp4","ANGRY","",NA,NA,NA,NA,NA,NA,"",NA,NA,NA,NA,NA,NA,0,25,25,32,1
"330","",NA,179060,"2022-11-21_20h54.33.684","KW_BodyFaceExp","2022.2.0","Win32",60.06006006,"",NA,-0.312870617,-0.00037067,1,0,0,0.6022,"resp_angry",NA,NA,NA,NA,NA,"","","B05.mp4","NEUTRAL","",NA,NA,NA,NA,NA,NA,"",NA,NA,NA,NA,NA,NA,0,26,26,4,1
"331","",NA,179060,"2022-11-21_20h54.33.684","KW_BodyFaceExp","2022.2.0","Win32",60.06006006,"",NA,-0.312870617,-0.00037067,1,0,0,0.6674,"resp_angry",NA,NA,NA,NA,NA,"","","B37.mp4","ANGRY","",NA,NA,NA,NA,NA,NA,"",NA,NA,NA,NA,NA,NA,0,27,27,36,1
"332","",NA,179060,"2022-11-21_20h54.33.684","KW_BodyFaceExp","2022.2.0","Win32",60.06006006,"",NA,-0.312870617,-0.00037067,1,0,0,0.8172,"resp_angry",NA,NA,NA,NA,NA,"","","B18.mp4","ANGRY","",NA,NA,NA,NA,NA,NA,"",NA,NA,NA,NA,NA,NA,0,28,28,17,1
"333","",NA,179060,"2022-11-21_20h54.33.684","KW_BodyFaceExp","2022.2.0","Win32",60.06006006,"",NA,-0.058978873,0.001482574,1,0,0,1.2632,"resp_neutral",NA,NA,NA,NA,NA,"","","B26.mp4","NEUTRAL","",NA,NA,NA,NA,NA,NA,"",NA,NA,NA,NA,NA,NA,0,29,29,25,1
"334","",NA,179060,"2022-11-21_20h54.33.684","KW_BodyFaceExp","2022.2.0","Win32",60.06006006,"",NA,-0.310090777,0.020014803,1,0,0,0.825,"resp_angry",NA,NA,NA,NA,NA,"","","B14.mp4","HAPPY","",NA,NA,NA,NA,NA,NA,"",NA,NA,NA,NA,NA,NA,0,30,30,13,1
"335","",NA,179060,"2022-11-21_20h54.33.684","KW_BodyFaceExp","2022.2.0","Win32",60.06006006,"",NA,0.34039124,-0.006856945,1,0,0,0.8372,"resp_happy",NA,NA,NA,NA,NA,"","","B09.mp4","HAPPY","",NA,NA,NA,NA,NA,NA,"",NA,NA,NA,NA,NA,NA,0,31,31,8,1
"336","",NA,179060,"2022-11-21_20h54.33.684","KW_BodyFaceExp","2022.2.0","Win32",60.06006006,"",NA,0.016076746,0.008895444,1,0,0,1.2913,"resp_neutral",NA,NA,NA,NA,NA,"","","B35.mp4","NEUTRAL","",NA,NA,NA,NA,NA,NA,"",NA,NA,NA,NA,NA,NA,0,32,32,34,1
"337","",NA,179060,"2022-11-21_20h54.33.684","KW_BodyFaceExp","2022.2.0","Win32",60.06006006,"",NA,0.016076746,0.008895444,1,0,0,0.4989,"resp_neutral",NA,NA,NA,NA,NA,"","","B11.mp4","ANGRY","",NA,NA,NA,NA,NA,NA,"",NA,NA,NA,NA,NA,NA,0,33,33,10,1
"338","",NA,179060,"2022-11-21_20h54.33.684","KW_BodyFaceExp","2022.2.0","Win32",60.06006006,"",NA,-0.311944021,0.017234963,1,0,0,0.9254,"resp_angry",NA,NA,NA,NA,NA,"","","B30.mp4","ANGRY","",NA,NA,NA,NA,NA,NA,"",NA,NA,NA,NA,NA,NA,0,34,34,29,1
"339","",NA,179060,"2022-11-21_20h54.33.684","KW_BodyFaceExp","2022.2.0","Win32",60.06006006,"",NA,0.307959651,0.001482574,1,0,0,2.0459,"resp_happy",NA,NA,NA,NA,NA,"","","B27.mp4","HAPPY","",NA,NA,NA,NA,NA,NA,"",NA,NA,NA,NA,NA,NA,0,35,35,26,1
"340","",NA,179060,"2022-11-21_20h54.33.684","KW_BodyFaceExp","2022.2.0","Win32",60.06006006,"",NA,0.307959651,0.001482574,1,0,0,0.6824,"resp_happy",NA,NA,NA,NA,NA,"","","B01.mp4","HAPPY","",NA,NA,NA,NA,NA,NA,"",NA,NA,NA,NA,NA,NA,0,36,36,0,1
"341","",NA,179060,"2022-11-21_20h54.33.684","KW_BodyFaceExp","2022.2.0","Win32",60.06006006,"",NA,0.307959651,0.001482574,1,0,0,0.4076,"resp_happy",NA,NA,NA,NA,NA,"","","B13.mp4","HAPPY","",NA,NA,NA,NA,NA,NA,"",NA,NA,NA,NA,NA,NA,0,37,37,12,1
"342","",NA,179060,"2022-11-21_20h54.33.684","KW_BodyFaceExp","2022.2.0","Win32",60.06006006,"",NA,0.307959651,0.001482574,1,0,0,0.4279,"resp_happy",NA,NA,NA,NA,NA,"","","B07.mp4","HAPPY","",NA,NA,NA,NA,NA,NA,"",NA,NA,NA,NA,NA,NA,0,38,38,6,1
"343","",NA,179060,"2022-11-21_20h54.33.684","KW_BodyFaceExp","2022.2.0","Win32",60.06006006,"",NA,0.029976106,0.000555871,1,0,0,0.9668,"resp_neutral",NA,NA,NA,NA,NA,"","","B41.mp4","HAPPY","",NA,NA,NA,NA,NA,NA,"",NA,NA,NA,NA,NA,NA,0,39,39,40,1
"344","",NA,179060,"2022-11-21_20h54.33.684","KW_BodyFaceExp","2022.2.0","Win32",60.06006006,"",NA,0.283867742,0.003335711,1,0,0,1.8432,"resp_happy",NA,NA,NA,NA,NA,"","","B38.mp4","HAPPY","",NA,NA,NA,NA,NA,NA,"",NA,NA,NA,NA,NA,NA,0,40,40,37,1
"345","",NA,179060,"2022-11-21_20h54.33.684","KW_BodyFaceExp","2022.2.0","Win32",60.06006006,"",NA,0.102251724,0.003335711,1,0,0,1.1569,"resp_neutral",NA,NA,NA,NA,NA,"","","B21.mp4","NEUTRAL","",NA,NA,NA,NA,NA,NA,"",NA,NA,NA,NA,NA,NA,0,41,41,20,1
"346","",NA,179060,"2022-11-21_20h54.33.684","KW_BodyFaceExp","2022.2.0","Win32",60.06006006,"",NA,0.102251724,0.003335711,1,0,0,1.1988,"resp_neutral",NA,NA,NA,NA,NA,"","","B19.mp4","ANGRY","",NA,NA,NA,NA,NA,NA,"",NA,NA,NA,NA,NA,NA,1,0,42,18,1
"347","",NA,179060,"2022-11-21_20h54.33.684","KW_BodyFaceExp","2022.2.0","Win32",60.06006006,"",NA,0.305179972,0.004262414,1,0,0,1.2668,"resp_happy",NA,NA,NA,NA,NA,"","","B01.mp4","HAPPY","",NA,NA,NA,NA,NA,NA,"",NA,NA,NA,NA,NA,NA,1,1,43,0,1
"348","",NA,179060,"2022-11-21_20h54.33.684","KW_BodyFaceExp","2022.2.0","Win32",60.06006006,"",NA,-0.36105438,0.000555871,1,0,0,0.6863,"resp_angry",NA,NA,NA,NA,NA,"","","B34.mp4","NEUTRAL","",NA,NA,NA,NA,NA,NA,"",NA,NA,NA,NA,NA,NA,1,2,44,33,1
"349","",NA,179060,"2022-11-21_20h54.33.684","KW_BodyFaceExp","2022.2.0","Win32",60.06006006,"",NA,-0.036740155,-0.00593035,1,0,0,1.1723,"resp_neutral",NA,NA,NA,NA,NA,"","","B40.mp4","ANGRY","",NA,NA,NA,NA,NA,NA,"",NA,NA,NA,NA,NA,NA,1,3,45,39,1
"350","",NA,179060,"2022-11-21_20h54.33.684","KW_BodyFaceExp","2022.2.0","Win32",60.06006006,"",NA,-0.314723861,0.000555871,1,0,0,1.1541,"resp_angry",NA,NA,NA,NA,NA,"","","B36.mp4","ANGRY","",NA,NA,NA,NA,NA,NA,"",NA,NA,NA,NA,NA,NA,1,4,46,35,1
"351","",NA,179060,"2022-11-21_20h54.33.684","KW_BodyFaceExp","2022.2.0","Win32",60.06006006,"",NA,-0.288778708,-0.002223861,1,0,0,0.6514,"resp_angry",NA,NA,NA,NA,NA,"","","B17.mp4","NEUTRAL","",NA,NA,NA,NA,NA,NA,"",NA,NA,NA,NA,NA,NA,1,5,47,16,1
"352","",NA,179060,"2022-11-21_20h54.33.684","KW_BodyFaceExp","2022.2.0","Win32",60.06006006,"",NA,-0.288778708,-0.002223861,1,0,0,0.6297,"resp_angry",NA,NA,NA,NA,NA,"","","B05.mp4","NEUTRAL","",NA,NA,NA,NA,NA,NA,"",NA,NA,NA,NA,NA,NA,1,6,48,4,1
"353","",NA,179060,"2022-11-21_20h54.33.684","KW_BodyFaceExp","2022.2.0","Win32",60.06006006,"",NA,-0.101603011,-0.009636785,1,0,0,0.9101,"resp_neutral",NA,NA,NA,NA,NA,"","","B11.mp4","ANGRY","",NA,NA,NA,NA,NA,NA,"",NA,NA,NA,NA,NA,NA,1,7,49,10,1
"354","",NA,179060,"2022-11-21_20h54.33.684","KW_BodyFaceExp","2022.2.0","Win32",60.06006006,"",NA,-0.071951423,-0.00871019,1,0,0,0.8169,"resp_neutral",NA,NA,NA,NA,NA,"","","B12.mp4","NEUTRAL","",NA,NA,NA,NA,NA,NA,"",NA,NA,NA,NA,NA,NA,1,8,50,11,1
"355","",NA,179060,"2022-11-21_20h54.33.684","KW_BodyFaceExp","2022.2.0","Win32",60.06006006,"",NA,-0.290631845,-0.00315051,1,0,0,0.6472,"resp_angry",NA,NA,NA,NA,NA,"","","B22.mp4","HAPPY","",NA,NA,NA,NA,NA,NA,"",NA,NA,NA,NA,NA,NA,1,9,51,21,1
"356","",NA,179060,"2022-11-21_20h54.33.684","KW_BodyFaceExp","2022.2.0","Win32",60.06006006,"",NA,0.374675697,0.003335711,1,0,0,0.9567,"resp_happy",NA,NA,NA,NA,NA,"","","B13.mp4","HAPPY","",NA,NA,NA,NA,NA,NA,"",NA,NA,NA,NA,NA,NA,1,10,52,12,1
"357","",NA,179060,"2022-11-21_20h54.33.684","KW_BodyFaceExp","2022.2.0","Win32",60.06006006,"",NA,-0.314723861,0.002409169,1,0,0,0.7863,"resp_angry",NA,NA,NA,NA,NA,"","","B33.mp4","ANGRY","",NA,NA,NA,NA,NA,NA,"",NA,NA,NA,NA,NA,NA,1,11,53,32,1
"358","",NA,179060,"2022-11-21_20h54.33.684","KW_BodyFaceExp","2022.2.0","Win32",60.06006006,"",NA,-0.314723861,0.002409169,1,0,0,0.4777,"resp_angry",NA,NA,NA,NA,NA,"","","B37.mp4","ANGRY","",NA,NA,NA,NA,NA,NA,"",NA,NA,NA,NA,NA,NA,1,12,54,36,1
"359","",NA,179060,"2022-11-21_20h54.33.684","KW_BodyFaceExp","2022.2.0","Win32",60.06006006,"",NA,0.053141419,0.001482574,1,0,0,1.121,"resp_neutral",NA,NA,NA,NA,NA,"","","B41.mp4","HAPPY","",NA,NA,NA,NA,NA,NA,"",NA,NA,NA,NA,NA,NA,1,13,55,40,1
"360","",NA,179060,"2022-11-21_20h54.33.684","KW_BodyFaceExp","2022.2.0","Win32",60.06006006,"",NA,-0.260053715,0.010748689,1,0,0,0.8094,"resp_angry",NA,NA,NA,NA,NA,"","","B14.mp4","HAPPY","",NA,NA,NA,NA,NA,NA,"",NA,NA,NA,NA,NA,NA,1,14,56,13,1
"361","",NA,179060,"2022-11-21_20h54.33.684","KW_BodyFaceExp","2022.2.0","Win32",60.06006006,"",NA,-0.285998868,0.007968849,1,0,0,0.6532,"resp_angry",NA,NA,NA,NA,NA,"","","B15.mp4","ANGRY","",NA,NA,NA,NA,NA,NA,"",NA,NA,NA,NA,NA,NA,1,15,57,14,1
"362","",NA,179060,"2022-11-21_20h54.33.684","KW_BodyFaceExp","2022.2.0","Win32",60.06006006,"",NA,-0.285998868,0.007968849,1,0,0,0.7446,"resp_angry",NA,NA,NA,NA,NA,"","","B23.mp4","ANGRY","",NA,NA,NA,NA,NA,NA,"",NA,NA,NA,NA,NA,NA,1,16,58,22,1
"363","",NA,179060,"2022-11-21_20h54.33.684","KW_BodyFaceExp","2022.2.0","Win32",60.06006006,"",NA,-0.090483652,0.002409169,1,0,0,0.938,"resp_neutral",NA,NA,NA,NA,NA,"","","B35.mp4","NEUTRAL","",NA,NA,NA,NA,NA,NA,"",NA,NA,NA,NA,NA,NA,1,17,59,34,1
"364","",NA,179060,"2022-11-21_20h54.33.684","KW_BodyFaceExp","2022.2.0","Win32",60.06006006,"",NA,0.350583788,0.000555871,1,0,0,0.8592,"resp_happy",NA,NA,NA,NA,NA,"","","B24.mp4","HAPPY","",NA,NA,NA,NA,NA,NA,"",NA,NA,NA,NA,NA,NA,1,18,60,23,1
"365","",NA,179060,"2022-11-21_20h54.33.684","KW_BodyFaceExp","2022.2.0","Win32",60.06006006,"",NA,0.067040457,-0.006856945,1,0,0,0.8717,"resp_neutral",NA,NA,NA,NA,NA,"","","B28.mp4","NEUTRAL","",NA,NA,NA,NA,NA,NA,"",NA,NA,NA,NA,NA,NA,1,19,61,27,1
"366","",NA,179060,"2022-11-21_20h54.33.684","KW_BodyFaceExp","2022.2.0","Win32",60.06006006,"",NA,0.067040457,-0.006856945,1,0,0,0.6828,"resp_neutral",NA,NA,NA,NA,NA,"","","B21.mp4","NEUTRAL","",NA,NA,NA,NA,NA,NA,"",NA,NA,NA,NA,NA,NA,1,20,62,20,1
"367","",NA,179060,"2022-11-21_20h54.33.684","KW_BodyFaceExp","2022.2.0","Win32",60.06006006,"",NA,-0.309164182,0.004262414,1,0,0,0.9072,"resp_angry",NA,NA,NA,NA,NA,"","","B32.mp4","ANGRY","",NA,NA,NA,NA,NA,NA,"",NA,NA,NA,NA,NA,NA,1,21,63,31,1
"368","",NA,179060,"2022-11-21_20h54.33.684","KW_BodyFaceExp","2022.2.0","Win32",60.06006006,"",NA,-0.309164182,0.004262414,1,0,0,0.6507,"resp_angry",NA,NA,NA,NA,NA,"","","B20.mp4","HAPPY","",NA,NA,NA,NA,NA,NA,"",NA,NA,NA,NA,NA,NA,1,22,64,19,1
"369","",NA,179060,"2022-11-21_20h54.33.684","KW_BodyFaceExp","2022.2.0","Win32",60.06006006,"",NA,-0.096043332,0.003335711,1,0,0,1.3566,"resp_neutral",NA,NA,NA,NA,NA,"","","B31.mp4","NEUTRAL","",NA,NA,NA,NA,NA,NA,"",NA,NA,NA,NA,NA,NA,1,23,65,30,1
"370","",NA,179060,"2022-11-21_20h54.33.684","KW_BodyFaceExp","2022.2.0","Win32",60.06006006,"",NA,-0.096043332,0.003335711,1,0,0,0.4957,"resp_neutral",NA,NA,NA,NA,NA,"","","B39.mp4","NEUTRAL","",NA,NA,NA,NA,NA,NA,"",NA,NA,NA,NA,NA,NA,1,24,66,38,1
"371","",NA,179060,"2022-11-21_20h54.33.684","KW_BodyFaceExp","2022.2.0","Win32",60.06006006,"",NA,-0.274879456,0.003335711,1,0,0,0.738,"resp_angry",NA,NA,NA,NA,NA,"","","B06.mp4","ANGRY","",NA,NA,NA,NA,NA,NA,"",NA,NA,NA,NA,NA,NA,1,25,67,5,1
"372","",NA,179060,"2022-11-21_20h54.33.684","KW_BodyFaceExp","2022.2.0","Win32",60.06006006,"",NA,0.331124964,-0.00593035,1,0,0,0.805,"resp_happy",NA,NA,NA,NA,NA,"","","B07.mp4","HAPPY","",NA,NA,NA,NA,NA,NA,"",NA,NA,NA,NA,NA,NA,1,26,68,6,1
"373","",NA,179060,"2022-11-21_20h54.33.684","KW_BodyFaceExp","2022.2.0","Win32",60.06006006,"",NA,-0.316576998,-0.002223861,1,0,0,0.9679,"resp_angry",NA,NA,NA,NA,NA,"","","B18.mp4","ANGRY","",NA,NA,NA,NA,NA,NA,"",NA,NA,NA,NA,NA,NA,1,27,69,17,1
"374","",NA,179060,"2022-11-21_20h54.33.684","KW_BodyFaceExp","2022.2.0","Win32",60.06006006,"",NA,-0.316576998,-0.001297266,1,0,0,3.5029,"resp_angry",NA,NA,NA,NA,NA,"","","B29.mp4","HAPPY","",NA,NA,NA,NA,NA,NA,"",NA,NA,NA,NA,NA,NA,1,28,70,28,1
"375","",NA,179060,"2022-11-21_20h54.33.684","KW_BodyFaceExp","2022.2.0","Win32",60.06006006,"",NA,-0.316576998,-0.001297266,1,0,0,0.5727,"resp_angry",NA,NA,NA,NA,NA,"","","B02.mp4","ANGRY","",NA,NA,NA,NA,NA,NA,"",NA,NA,NA,NA,NA,NA,1,29,71,1,1
"376","",NA,179060,"2022-11-21_20h54.33.684","KW_BodyFaceExp","2022.2.0","Win32",60.06006006,"",NA,-0.067318339,-0.00593035,1,0,0,0.7804,"resp_neutral",NA,NA,NA,NA,NA,"","","B26.mp4","NEUTRAL","",NA,NA,NA,NA,NA,NA,"",NA,NA,NA,NA,NA,NA,1,30,72,25,1
"377","",NA,179060,"2022-11-21_20h54.33.684","KW_BodyFaceExp","2022.2.0","Win32",60.06006006,"",NA,-0.313797158,-0.00593035,1,0,0,0.4332,"resp_angry",NA,NA,NA,NA,NA,"","","B42.mp4","NEUTRAL","",NA,NA,NA,NA,NA,NA,"",NA,NA,NA,NA,NA,NA,1,31,73,41,1
"378","",NA,179060,"2022-11-21_20h54.33.684","KW_BodyFaceExp","2022.2.0","Win32",60.06006006,"",NA,-0.032107071,-0.007783541,1,0,0,1.7975,"resp_neutral",NA,NA,NA,NA,NA,"","","B25.mp4","HAPPY","",NA,NA,NA,NA,NA,NA,"",NA,NA,NA,NA,NA,NA,1,32,74,24,1
"379","",NA,179060,"2022-11-21_20h54.33.684","KW_BodyFaceExp","2022.2.0","Win32",60.06006006,"",NA,-0.032107071,-0.007783541,1,0,0,1.2543,"resp_neutral",NA,NA,NA,NA,NA,"","","B10.mp4","NEUTRAL","",NA,NA,NA,NA,NA,NA,"",NA,NA,NA,NA,NA,NA,1,33,75,9,1
"380","",NA,179060,"2022-11-21_20h54.33.684","KW_BodyFaceExp","2022.2.0","Win32",60.06006006,"",NA,-0.032107071,-0.007783541,1,0,0,2.8404,"resp_neutral",NA,NA,NA,NA,NA,"","","B08.mp4","NEUTRAL","",NA,NA,NA,NA,NA,NA,"",NA,NA,NA,NA,NA,NA,1,34,76,7,1
"381","",NA,179060,"2022-11-21_20h54.33.684","KW_BodyFaceExp","2022.2.0","Win32",60.06006006,"",NA,0.420079728,-0.004077105,1,0,0,1.0259,"resp_happy",NA,NA,NA,NA,NA,"","","B09.mp4","HAPPY","",NA,NA,NA,NA,NA,NA,"",NA,NA,NA,NA,NA,NA,1,35,77,8,1
"382","",NA,179060,"2022-11-21_20h54.33.684","KW_BodyFaceExp","2022.2.0","Win32",60.06006006,"",NA,0.346877514,0.004262414,1,0,0,0.8041,"resp_happy",NA,NA,NA,NA,NA,"","","B38.mp4","HAPPY","",NA,NA,NA,NA,NA,NA,"",NA,NA,NA,NA,NA,NA,1,36,78,37,1
"383","",NA,179060,"2022-11-21_20h54.33.684","KW_BodyFaceExp","2022.2.0","Win32",60.06006006,"",NA,-0.374953633,-0.00871019,1,0,0,0.5954,"resp_angry",NA,NA,NA,NA,NA,"","","B04.mp4","ANGRY","",NA,NA,NA,NA,NA,NA,"",NA,NA,NA,NA,NA,NA,1,37,79,3,1
"384","",NA,179060,"2022-11-21_20h54.33.684","KW_BodyFaceExp","2022.2.0","Win32",60.06006006,"",NA,-0.373100442,-0.007783541,1,0,0,0.4084,"resp_angry",NA,NA,NA,NA,NA,"","","B30.mp4","ANGRY","",NA,NA,NA,NA,NA,NA,"",NA,NA,NA,NA,NA,NA,1,38,80,29,1
"385","",NA,179060,"2022-11-21_20h54.33.684","KW_BodyFaceExp","2022.2.0","Win32",60.06006006,"",NA,0.339464429,0.003335711,1,0,0,0.9525,"resp_happy",NA,NA,NA,NA,NA,"","","B27.mp4","HAPPY","",NA,NA,NA,NA,NA,NA,"",NA,NA,NA,NA,NA,NA,1,39,81,26,1
"386","",NA,179060,"2022-11-21_20h54.33.684","KW_BodyFaceExp","2022.2.0","Win32",60.06006006,"",NA,0.108737999,-0.00593035,1,0,0,0.7048,"resp_neutral",NA,NA,NA,NA,NA,"","","B16.mp4","HAPPY","",NA,NA,NA,NA,NA,NA,"",NA,NA,NA,NA,NA,NA,1,40,82,15,1
"387","",NA,179060,"2022-11-21_20h54.33.684","KW_BodyFaceExp","2022.2.0","Win32",60.06006006,"",NA,0.108737999,-0.00593035,1,0,0,1.4133,"resp_neutral",NA,NA,NA,NA,NA,"","","B03.mp4","NEUTRAL","",NA,NA,NA,NA,NA,NA,"",NA,NA,NA,NA,NA,NA,1,41,83,2,1
"388","",NA,179060,"2022-11-21_20h54.33.684","KW_BodyFaceExp","2022.2.0","Win32",60.06006006,"",NA,NA,NA,NA,NA,NA,NA,"",NA,NA,NA,NA,NA,"","","","","",NA,NA,NA,NA,NA,NA,"",NA,NA,NA,NA,NA,NA,NA,NA,NA,NA,NA
"389","space",2.3396,180079,"2022-11-20_20h48.27.362","KW_BodyFaceExp","2022.2.0","Win32",7.506662163,"",NA,NA,NA,NA,NA,NA,NA,"",NA,NA,NA,NA,NA,"","","","","",NA,NA,NA,NA,NA,NA,"",NA,NA,NA,NA,NA,NA,NA,NA,NA,NA,NA
"390","",NA,180079,"2022-11-20_20h48.27.362","KW_BodyFaceExp","2022.2.0","Win32",7.506662163,"right",6.8811,NA,NA,NA,NA,NA,NA,"",NA,NA,NA,NA,NA,"","","","","",NA,NA,NA,NA,NA,NA,"",NA,NA,NA,NA,NA,NA,NA,NA,NA,NA,NA
"391","",NA,180079,"2022-11-20_20h48.27.362","KW_BodyFaceExp","2022.2.0","Win32",7.506662163,"",NA,0.032407407,-0.002777771,1,0,0,4.2432,"resp_neutral",0,0,0,0,1,"F01.mp4","ANGRY","B01.mp4","HAPPY","",NA,NA,NA,NA,NA,NA,"",NA,NA,NA,NA,NA,NA,NA,NA,NA,NA,NA
"392","",NA,180079,"2022-11-20_20h48.27.362","KW_BodyFaceExp","2022.2.0","Win32",7.506662163,"",NA,0.053703732,0.012962942,1,0,0,1.3853,"resp_neutral",0,1,1,3,1,"F04.mp4","NEUTRAL","B04.mp4","ANGRY","",NA,NA,NA,NA,NA,NA,"",NA,NA,NA,NA,NA,NA,NA,NA,NA,NA,NA
"393","",NA,180079,"2022-11-20_20h48.27.362","KW_BodyFaceExp","2022.2.0","Win32",7.506662163,"",NA,0.053703732,0.012962942,1,0,0,1.5393,"resp_neutral",0,2,2,6,1,"F07.mp4","ANGRY","B07.mp4","HAPPY","",NA,NA,NA,NA,NA,NA,"",NA,NA,NA,NA,NA,NA,NA,NA,NA,NA,NA
"394","",NA,180079,"2022-11-20_20h48.27.362","KW_BodyFaceExp","2022.2.0","Win32",7.506662163,"",NA,0.053703732,0.012962942,1,0,0,1.0765,"resp_neutral",0,3,3,7,1,"F08.mp4","ANGRY","B08.mp4","NEUTRAL","",NA,NA,NA,NA,NA,NA,"",NA,NA,NA,NA,NA,NA,NA,NA,NA,NA,NA
"395","",NA,180079,"2022-11-20_20h48.27.362","KW_BodyFaceExp","2022.2.0","Win32",7.506662163,"",NA,0.053703732,0.012962942,1,0,0,0.9008,"resp_neutral",0,4,4,1,1,"F02.mp4","NEUTRAL","B02.mp4","ANGRY","",NA,NA,NA,NA,NA,NA,"",NA,NA,NA,NA,NA,NA,NA,NA,NA,NA,NA
"396","",NA,180079,"2022-11-20_20h48.27.362","KW_BodyFaceExp","2022.2.0","Win32",7.506662163,"",NA,0.330555527,-0.006481489,1,0,0,2.2578,"resp_happy",0,5,5,2,1,"F03.mp4","HAPPY","B03.mp4","NEUTRAL","",NA,NA,NA,NA,NA,NA,"",NA,NA,NA,NA,NA,NA,NA,NA,NA,NA,NA
"397","",NA,180079,"2022-11-20_20h48.27.362","KW_BodyFaceExp","2022.2.0","Win32",7.506662163,"",NA,0.090740769,-0.006481489,1,0,0,1.5185,"resp_neutral",0,6,6,9,1,"F10.mp4","ANGRY","B10.mp4","NEUTRAL","",NA,NA,NA,NA,NA,NA,"",NA,NA,NA,NA,NA,NA,NA,NA,NA,NA,NA
"398","",NA,180079,"2022-11-20_20h48.27.362","KW_BodyFaceExp","2022.2.0","Win32",7.506662163,"",NA,0.090740769,-0.006481489,1,0,0,1.2259,"resp_neutral",0,7,7,8,1,"F09.mp4","NEUTRAL","B09.mp4","HAPPY","",NA,NA,NA,NA,NA,NA,"",NA,NA,NA,NA,NA,NA,NA,NA,NA,NA,NA
"399","",NA,180079,"2022-11-20_20h48.27.362","KW_BodyFaceExp","2022.2.0","Win32",7.506662163,"",NA,-0.320370356,-0.001851859,1,0,0,1.5133,"resp_angry",0,8,8,4,1,"F05.mp4","ANGRY","B05.mp4","NEUTRAL","",NA,NA,NA,NA,NA,NA,"",NA,NA,NA,NA,NA,NA,NA,NA,NA,NA,NA
"400","",NA,180079,"2022-11-20_20h48.27.362","KW_BodyFaceExp","2022.2.0","Win32",7.506662163,"",NA,-0.042592578,0.011111118,1,0,0,3.0343,"resp_neutral",0,9,9,5,1,"F06.mp4","HAPPY","B06.mp4","ANGRY","",NA,NA,NA,NA,NA,NA,"",NA,NA,NA,NA,NA,NA,NA,NA,NA,NA,NA
"401","",NA,180079,"2022-11-20_20h48.27.362","KW_BodyFaceExp","2022.2.0","Win32",7.506662163,"",NA,NA,NA,NA,NA,NA,NA,"",NA,NA,NA,NA,NA,"","","","","space",1.7037,NA,NA,NA,NA,NA,"",NA,NA,NA,NA,NA,NA,NA,NA,NA,NA,NA
"402","",NA,180079,"2022-11-20_20h48.27.362","KW_BodyFaceExp","2022.2.0","Win32",7.506662163,"",NA,0.283333319,0.02407406,1,0,0,1.228,"resp_happy",NA,NA,NA,NA,NA,"F35.mp4","NEUTRAL","","","",NA,0,0,0,34,1,"",NA,NA,NA,NA,NA,NA,NA,NA,NA,NA,NA
"403","",NA,180079,"2022-11-20_20h48.27.362","KW_BodyFaceExp","2022.2.0","Win32",7.506662163,"",NA,-0.347222222,-0.006481489,1,0,0,1.3698,"resp_angry",NA,NA,NA,NA,NA,"F07.mp4","ANGRY","","","",NA,0,1,1,6,1,"",NA,NA,NA,NA,NA,NA,NA,NA,NA,NA,NA
"404","",NA,180079,"2022-11-20_20h48.27.362","KW_BodyFaceExp","2022.2.0","Win32",7.506662163,"",NA,-0.050925926,0.010185171,1,0,0,1.1993,"resp_neutral",NA,NA,NA,NA,NA,"F30.mp4","HAPPY","","","",NA,0,2,2,29,1,"",NA,NA,NA,NA,NA,NA,NA,NA,NA,NA,NA
"405","",NA,180079,"2022-11-20_20h48.27.362","KW_BodyFaceExp","2022.2.0","Win32",7.506662163,"",NA,-0.050925926,0.010185171,1,0,0,0.7657,"resp_neutral",NA,NA,NA,NA,NA,"F02.mp4","NEUTRAL","","","",NA,0,3,3,1,1,"",NA,NA,NA,NA,NA,NA,NA,NA,NA,NA,NA
"406","",NA,180079,"2022-11-20_20h48.27.362","KW_BodyFaceExp","2022.2.0","Win32",7.506662163,"",NA,0.337962963,0.01203703,1,0,0,1.6717,"resp_happy",NA,NA,NA,NA,NA,"F20.mp4","NEUTRAL","","","",NA,0,4,4,19,1,"",NA,NA,NA,NA,NA,NA,NA,NA,NA,NA,NA
"407","",NA,180079,"2022-11-20_20h48.27.362","KW_BodyFaceExp","2022.2.0","Win32",7.506662163,"",NA,0.337962963,0.01203703,1,0,0,0.7931,"resp_happy",NA,NA,NA,NA,NA,"F21.mp4","NEUTRAL","","","",NA,0,5,5,20,1,"",NA,NA,NA,NA,NA,NA,NA,NA,NA,NA,NA
